<?xml version="1.0" encoding="UTF-8"?>
<?xml-stylesheet type="text/xsl" href="../../rezeptanforderung.xsl" ?>
<Bundle xmlns="http://hl7.org/fhir">
    <id value="UC1-Rejection-Of-Prescriber"/>
    <meta>
        <profile value="https://gematik.de/fhir/erp-servicerequest/StructureDefinition/erp-service-request-message-container"/>
    </meta>
    <identifier>
        <system value="urn:ietf:rfc:3986"/>
        <value value="urn:uuid:29888885-6639-481c-934e-4b7b51745084"/>
    </identifier>
    <type value="message"/>
    <timestamp value="2025-05-13T16:15:54.239+02:00"/>
    <entry>
        <fullUrl value="http://erp-servicerequest-test.de/MessageHeader/UC1-Practitioner-to-HealthCareService-MessageHeader-Rejection"/>
        <resource>
            <MessageHeader>
                <id value="UC1-Practitioner-to-HealthCareService-MessageHeader-Rejection"/>
                <meta>
                    <profile value="https://gematik.de/fhir/erp-servicerequest/StructureDefinition/erp-service-request-request-header"/>
                </meta>
                <eventCoding>
                    <system value="https://gematik.de/fhir/atf/CodeSystem/service-identifier-cs"/>
                    <code value="eRezept_Rezeptanforderung;Rezeptanfrage_Ablehnung"/>
                </eventCoding>
                <destination>
                    <name value="Praxis Hans Topp-Glücklich"/>
                    <endpoint value="practitioner@test.kim.de"/>
                </destination>
                <sender>
                    <identifier>
                        <system value="https://gematik.de/fhir/sid/telematik-id"/>
                        <value value="5-test-telematik-id"/>
                    </identifier>
                    <display value="Pflegeheim Immergrün"/>
                </sender>
                <source>
                    <name value="Practitioner-Source"/>
                    <software value="Practitioner-Software"/>
                    <version value="1.0.0"/>
                    <contact>
                        <system value="email"/>
                        <value value="info@practitioner.email"/>
                    </contact>
                    <endpoint value="http://practitioner.endpoint"/>
                </source>
                <responsible>
                    <reference value="Organization/Example-Practitioner-Organization"/>
                </responsible>
                <focus>
                    <reference value="ServiceRequest/UC1-Rejection-Prescription-Request"/>
                </focus>
            </MessageHeader>
        </resource>
    </entry>
    <entry>
        <fullUrl value="http://erp-servicerequest-test.de/Organization/Example-Practitioner-Organization"/>
        <resource>
            <Organization>
                <id value="Example-Practitioner-Organization"/>
                <meta>
                    <profile value="https://gematik.de/fhir/erp-servicerequest/StructureDefinition/erp-service-request-organization"/>
                </meta>
                <type>
                    <coding>
                        <system value="http://ihe-d.de/CodeSystems/PatientBezogenenGesundheitsversorgung"/>
                        <code value="PRA"/>
                        <display value="Arztpraxis"/>
                    </coding>
                </type>
                <name value="Test Arztpraxis"/>
                <address>
                    <type value="both"/>
                    <line value="Musterarztstr. 3">
                        <extension url="http://hl7.org/fhir/StructureDefinition/iso21090-ADXP-houseNumber">
                            <valueString value="3"/>
                        </extension>
                        <extension url="http://hl7.org/fhir/StructureDefinition/iso21090-ADXP-streetName">
                            <valueString value="Musterarztstr."/>
                        </extension>
                    </line>
                    <city value="Berlin"/>
                    <postalCode value="10623"/>
                </address>
                <contact>
                    <telecom>
                        <system value="phone"/>
                        <value value="0307654321"/>
                    </telecom>
                </contact>
            </Organization>
        </resource>
    </entry>
    <entry>
        <fullUrl value="http://erp-servicerequest-test.de/ServiceRequest/UC1-Rejection-Prescription-Request"/>
        <resource>
            <ServiceRequest>
                <id value="UC1-Rejection-Prescription-Request"/>
                <meta>
                    <profile value="https://gematik.de/fhir/erp-servicerequest/StructureDefinition/erp-service-request-prescription-request"/>
                </meta>
                <identifier>
                    <system value="https://gematik.de/fhir/erp-servicerequest/sid/RequestIdentifier"/>
                    <value value="9566b199-3183-4352-acef-d730a4005d6f"/>
                </identifier>
                <requisition>
                    <system value="https://gematik.de/fhir/erp-servicerequest/sid/ProcedureIdentifier"/>
                    <value value="GroupID-UC1"/>
                </requisition>
                <status value="revoked"/>
                <intent value="order"/>
                <code>
                    <coding>
                        <system value="https://gematik.de/fhir/erp-servicerequest/CodeSystem/service-request-type-cs"/>
                        <code value="prescription-request"/>
                    </coding>
                </code>
                <subject>
                    <reference value="Patient/Example-Patient"/>
                </subject>
                <authoredOn value="2025-05-13"/>
                <reasonCode>
                    <text value="Hr. Königsstein braucht das Medikament nicht mehr"/>
                </reasonCode>
            </ServiceRequest>
        </resource>
    </entry>
    <entry>
        <fullUrl value="http://erp-servicerequest-test.de/Patient/Example-Patient"/>
        <resource>
            <Patient>
                <id value="Example-Patient"/>
                <meta>
                    <profile value="https://gematik.de/fhir/erp-servicerequest/StructureDefinition/erp-service-request-patient"/>
                </meta>
                <identifier>
                    <type>
                        <coding>
                            <system value="http://fhir.de/CodeSystem/identifier-type-de-basis"/>
                            <code value="GKV"/>
                        </coding>
                    </type>
                    <system value="http://fhir.de/sid/gkv/kvid-10"/>
                    <value value="X234567890"/>
                </identifier>
                <name>
                    <use value="official"/>
                    <family value="Königsstein">
                        <extension url="http://hl7.org/fhir/StructureDefinition/humanname-own-name">
                            <valueString value="Königsstein"/>
                        </extension>
                    </family>
                    <given value="Ludger"/>
                </name>
                <birthDate value="1935-06-22"/>
                <address>
                    <type value="both"/>
                    <line value="Musterstr. 1">
                        <extension url="http://hl7.org/fhir/StructureDefinition/iso21090-ADXP-houseNumber">
                            <valueString value="1"/>
                        </extension>
                        <extension url="http://hl7.org/fhir/StructureDefinition/iso21090-ADXP-streetName">
                            <valueString value="Musterstr."/>
                        </extension>
                    </line>
                    <city value="Berlin"/>
                    <postalCode value="10623"/>
                </address>
            </Patient>
        </resource>
    </entry>
</Bundle>