{
    "id": "30218243-8123-4293-8311-1575f01a3287",
    "meta": {
        "profile": [
            "https://gematik.de/fhir/atf/StructureDefinition/bundle-app-transport-framework"
        ]
    },
    "entry": [
        {
            "fullUrl": "urn:uuid:df802186-7f7f-4fbf-be6e-3025e5366b40",
            "resource": {
                "id": "df802186-7f7f-4fbf-be6e-3025e5366b40",
                "meta": {
                    "profile": [
                        "https://gematik.de/fhir/atf/StructureDefinition/message-header-app-transport"
                    ]
                },
                "destination": [
                    {
                        "endpoint": "https://unknown.endpoint.de",
                        "receiver": {
                            "display": "Praxis Dr. Hasenbein",
                            "identifier": {
                                "system": "http://gematik.de/fhir/sid/KIM-Adresse",
                                "value": "hasenbein@gluecklich.kim.telematik"
                            }
                        }
                    }
                ],
                "eventCoding": {
                    "code": "eRezept_Rezeptanforderung;Rezeptanfrage",
                    "display": "Anfrage an einen Arzt ein Rezept auszustellen",
                    "system": "https://gematik.de/fhir/atf/CodeSystem/service-identifier-cs"
                },
                "focus": [
                    {
                        "reference": "urn:uuid:66028662-fb5b-4592-ac08-f472fd04d595"
                    }
                ],
                "sender": {
                    "display": "Pflegeheim Immergr\u00fcn",
                    "identifier": {
                        "system": "http://gematik.de/fhir/sid/KIM-Adresse",
                        "value": "pflegeheim.immergr\u00fcn.arzt@sana-pflegeheime.kim.telematik"
                    }
                },
                "source": {
                    "contact": {
                        "system": "email",
                        "value": "dev@ps_solutions.de"
                    },
                    "endpoint": "https://ps_solutions.com/jira_helpdesk",
                    "name": "PSSolutions",
                    "software": "Globotron 500",
                    "version": "2.1.3"
                },
                "resourceType": "MessageHeader"
            }
        },
        {
            "fullUrl": "urn:uuid:66028662-fb5b-4592-ac08-f472fd04d595",
            "resource": {
                "id": "66028662-fb5b-4592-ac08-f472fd04d595",
                "meta": {
                    "profile": [
                        "https://gematik.de/fhir/erp-servicerequest/StructureDefinition/service-request-prescription-request"
                    ]
                },
                "authoredOn": "2023-05-23T23:17:06.724513",
                "basedOn": [
                    {
                        "reference": "964720d6-399c-4a55-aa87-d0385055c475"
                    }
                ],
                "code": {
                    "coding": [
                        {
                            "code": "prescription-request",
                            "system": "https://gematik.de/fhir/erp-servicerequest/CodeSystem/service-request-type-cs"
                        }
                    ]
                },
                "identifier": [
                    {
                        "system": "request",
                        "value": "66028662-fb5b-4592-ac08-f472fd04d595"
                    },
                    {
                        "system": "predis",
                        "value": "44945f47-1b43-452d-bf50-7157e311eec6"
                    },
                    {
                        "system": "vorgangs",
                        "value": "de399699-4a84-459a-ab91-56b87796143d"
                    }
                ],
                "intent": "order",
                "note": [
                    {
                        "text": "Medikament l\u00e4uft am 31.01.2023 aus. Es sind noch 7 stk \u00fcbrig."
                    }
                ],
                "occurrenceDateTime": "2023-05-23T23:17:06.724513",
                "orderDetail": [
                    {
                        "coding": [
                            {
                                "code": "return-to-requester",
                                "system": "https://gematik.de/fhir/erp-servicerequest/CodeSystem/prescription-fullfillment-type-cs"
                            }
                        ]
                    }
                ],
                "performer": [
                    {
                        "identifier": {
                            "system": "http://gematik.de/fhir/sid/KIM-Adresse",
                            "value": "practitioner@gluecklich.kim.telematik"
                        }
                    }
                ],
                "reasonCode": [
                    {
                        "coding": [
                            {
                                "code": "medication-runs-out",
                                "system": "https://gematik.de/fhir/erp-servicerequest/CodeSystem/medication-request-reason-cs"
                            }
                        ]
                    }
                ],
                "reasonReference": [
                    {
                        "reference": "Medication-Runs-Out-Example-dateTime"
                    },
                    {
                        "reference": "Medication-Runs-Out-Example-Quantity"
                    }
                ],
                "requester": {
                    "reference": "0f36ece1-f1ef-42f3-813a-e2eeaf1e8a14"
                },
                "requisition": {
                    "system": "https://gematik.de/fhir/erp-servicerequest/sid/NamingSystemProcedureIdentifier",
                    "value": "de399699-4a84-459a-ab91-56b87796143d"
                },
                "status": "active",
                "subject": {
                    "reference": "671b89b2-a927-4c5a-a749-70836a8cee97"
                },
                "resourceType": "ServiceRequest"
            }
        },
        {
            "fullUrl": "urn:uuid:Example-Initial-Medication",
            "resource": {
                "id": "Example-Initial-Medication",
                "meta": {
                    "profile": [
                        "https://fhir.kbv.de/StructureDefinition/KBV_PR_ERP_Medication_PZN|1.1.0"
                    ]
                },
                "extension": [
                    {
                        "url": "https://fhir.kbv.de/StructureDefinition/KBV_EX_Base_Medication_Type",
                        "valueCodeableConcept": {
                            "coding": [
                                {
                                    "code": "763158003",
                                    "display": "Medicinal product (product)",
                                    "system": "http://snomed.info/sct",
                                    "version": "http://snomed.info/sct/900000000000207008/version/20220331"
                                }
                            ]
                        }
                    },
                    {
                        "url": "https://fhir.kbv.de/StructureDefinition/KBV_EX_ERP_Medication_Category",
                        "valueCoding": {
                            "code": "00",
                            "system": "https://fhir.kbv.de/CodeSystem/KBV_CS_ERP_Medication_Category"
                        }
                    },
                    {
                        "url": "https://fhir.kbv.de/StructureDefinition/KBV_EX_ERP_Medication_Vaccine",
                        "valueBoolean": false
                    },
                    {
                        "url": "http://fhir.de/StructureDefinition/normgroesse",
                        "valueCode": "N1"
                    }
                ],
                "code": {
                    "coding": [
                        {
                            "code": "08585997",
                            "system": "http://fhir.de/CodeSystem/ifa/pzn"
                        }
                    ],
                    "text": "Prospan\u00ae Hustensaft 100ml"
                },
                "form": {
                    "coding": [
                        {
                            "code": "FLE",
                            "system": "https://fhir.kbv.de/CodeSystem/KBV_CS_SFHIR_KBV_DARREICHUNGSFORM"
                        }
                    ]
                },
                "resourceType": "Medication"
            }
        },
        {
            "fullUrl": "urn:uuid:4147e7d5-d184-48a5-9289-609b5b41f120",
            "resource": {
                "id": "4147e7d5-d184-48a5-9289-609b5b41f120",
                "meta": {
                    "profile": [
                        "https://fhir.kbv.de/StructureDefinition/KBV_PR_FOR_Patient|1.1.0"
                    ]
                },
                "address": [
                    {
                        "city": "Berlin",
                        "line": [
                            "Musterstr. 1"
                        ],
                        "_line": [
                            {
                                "extension": [
                                    {
                                        "url": "http://hl7.org/fhir/StructureDefinition/iso21090-ADXP-houseNumber",
                                        "valueString": "1"
                                    },
                                    {
                                        "url": "http://hl7.org/fhir/StructureDefinition/iso21090-ADXP-streetName",
                                        "valueString": "Musterstr."
                                    }
                                ]
                            }
                        ],
                        "postalCode": "10623",
                        "type": "both"
                    }
                ],
                "birthDate": "1935-06-22",
                "identifier": [
                    {
                        "system": "http://fhir.de/sid/gkv/kvid-10",
                        "type": {
                            "coding": [
                                {
                                    "code": "GKV",
                                    "system": "http://fhir.de/CodeSystem/identifier-type-de-basis"
                                }
                            ]
                        },
                        "value": "X234567890"
                    }
                ],
                "name": [
                    {
                        "family": "K\u00f6nigsstein",
                        "given": [
                            "Ludger"
                        ],
                        "use": "official"
                    }
                ],
                "resourceType": "Patient"
            }
        },
        {
            "fullUrl": "urn:uuid:80382a435af54f90805ff1daf7cd4bf9",
            "resource": {
                "id": "80382a435af54f90805ff1daf7cd4bf9",
                "meta": {
                    "profile": [
                        "https://gematik.de/fhir/erp-servicerequest/StructureDefinition/erp-service-request-medication-request"
                    ]
                },
                "extension": [
                    {
                        "url": "https://gematik.de/fhir/erp-servicerequest/StructureDefinition/prescription-id-ex",
                        "valueIdentifier": {
                            "system": "https://gematik.de/fhir/erp/NamingSystem/GEM_ERP_NS_PrescriptionId",
                            "value": "160.100.000.000.001.36"
                        }
                    }
                ],
                "authoredOn": "2023-05-23T23:17:06.723280",
                "dispenseRequest": {
                    "quantity": {
                        "code": "{Package}",
                        "system": "http://unitsofmeasure.org",
                        "value": 1
                    }
                },
                "dosageInstruction": [
                    {
                        "text": "2mal t\u00e4gl. 5ml"
                    }
                ],
                "intent": "order",
                "medicationReference": {
                    "reference": "Example-Initial-Medication"
                },
                "status": "active",
                "subject": {
                    "reference": "4147e7d5-d184-48a5-9289-609b5b41f120"
                },
                "substitution": {
                    "allowedBoolean": true
                },
                "resourceType": "MedicationRequest"
            }
        },
        {
            "fullUrl": "urn:uuid:d8b8fae266bd4a4289ed1501b32771f7",
            "resource": {
                "id": "d8b8fae266bd4a4289ed1501b32771f7",
                "meta": {
                    "profile": [
                        "https://gematik.de/fhir/erp-servicerequest/StructureDefinition/erp-service-request-organization"
                    ]
                },
                "address": [
                    {
                        "city": "Berlin",
                        "line": [
                            "Musterstr. 2"
                        ],
                        "_line": [
                            {
                                "extension": [
                                    {
                                        "url": "http://hl7.org/fhir/StructureDefinition/iso21090-ADXP-houseNumber",
                                        "valueString": "2"
                                    },
                                    {
                                        "url": "http://hl7.org/fhir/StructureDefinition/iso21090-ADXP-streetName",
                                        "valueString": "Musterstr."
                                    }
                                ]
                            }
                        ],
                        "postalCode": "10623",
                        "type": "both"
                    }
                ],
                "identifier": [
                    {
                        "system": "http://gematik.de/fhir/sid/KIM-Adresse",
                        "type": {
                            "coding": [
                                {
                                    "code": "kim-2.0",
                                    "system": "https://gematik.de/fhir/directory/CodeSystem/EndpointDirectoryConnectionType"
                                }
                            ]
                        },
                        "value": "pflegeheim.immergr\u00fcn.arzt@sana-pflegeheime.kim.telematik"
                    },
                    {
                        "system": "https://gematik.de/fhir/sid/telematik-id",
                        "type": {
                            "coding": [
                                {
                                    "code": "PRN",
                                    "system": "http://terminology.hl7.org/CodeSystem/v2-0203"
                                }
                            ]
                        },
                        "value": "1-031234567"
                    },
                    {
                        "system": "https://fhir.kbv.de/NamingSystem/KBV_NS_Base_BSNR",
                        "type": {
                            "coding": [
                                {
                                    "code": "BSNR",
                                    "system": "http://terminology.hl7.org/CodeSystem/v2-0203"
                                }
                            ]
                        },
                        "value": "031234567"
                    }
                ],
                "name": "Pflegeheim Immergr\u00fcn",
                "telecom": [
                    {
                        "system": "phone",
                        "value": "0301234567"
                    }
                ],
                "resourceType": "Organization"
            }
        },
        {
            "fullUrl": "urn:uuid:Medication-Runs-Out-Example-dateTime",
            "resource": {
                "id": "Medication-Runs-Out-Example-dateTime",
                "meta": {
                    "profile": [
                        "https://gematik.de/fhir/erp-servicerequest/StructureDefinition/erp-service-request-remaining-medication"
                    ]
                },
                "code": {
                    "coding": [
                        {
                            "code": "range-of-medication",
                            "system": "https://gematik.de/fhir/erp-servicerequest/CodeSystem/medication-observation-cs"
                        }
                    ]
                },
                "status": "final",
                "subject": {
                    "reference": "Patient/Example-Patient"
                },
                "valueDateTime": "2023-01-31",
                "resourceType": "Observation"
            }
        },
        {
            "fullUrl": "urn:uuid:Medication-Runs-Out-Example-Quantity",
            "resource": {
                "id": "Medication-Runs-Out-Example-Quantity",
                "meta": {
                    "profile": [
                        "https://gematik.de/fhir/erp-servicerequest/StructureDefinition/erp-service-request-remaining-medication"
                    ]
                },
                "code": {
                    "coding": [
                        {
                            "code": "range-of-medication",
                            "system": "https://gematik.de/fhir/erp-servicerequest/CodeSystem/medication-observation-cs"
                        }
                    ]
                },
                "status": "final",
                "subject": {
                    "reference": "Patient/Example-Patient"
                },
                "valueQuantity": {
                    "unit": "stk",
                    "value": 7
                },
                "resourceType": "Observation"
            }
        }
    ],
    "identifier": {
        "system": "urn:ietf:rfc:3986",
        "value": "urn:uuid:30218243-8123-4293-8311-1575f01a3287"
    },
    "timestamp": "2023-05-23T21:17:06.726514+00:00",
    "type": "message",
    "resourceType": "Bundle"
}