<?xml version='1.0' encoding='utf-8'?>
<Bundle xmlns="http://hl7.org/fhir"><id value="bc79ccdd-b796-4ec4-a0c0-96765aec9c95"/><meta><profile value="https://gematik.de/fhir/erp-servicerequest/StructureDefinition/erp-service-request-message-container"/></meta><identifier><system value="urn:ietf:rfc:3986"/><value value="urn:uuid:bc79ccdd-b796-4ec4-a0c0-96765aec9c95"/></identifier><type value="message"/><timestamp value="2024-11-01T14:40:53.567606+00:00"/><entry><fullUrl value="urn:uuid:0cd9a91d-1774-4dfc-b56b-6147e8914ce4"/><resource><MessageHeader><id value="0cd9a91d-1774-4dfc-b56b-6147e8914ce4"/><meta><profile value="https://gematik.de/fhir/erp-servicerequest/StructureDefinition/erp-service-request-request-header"/></meta><eventCoding><system value="https://gematik.de/fhir/atf/CodeSystem/service-identifier-cs"/><code value="eRezept_Rezeptanforderung;Rezeptbestaetigung"/><display value="Bestätigung und Übermittlung eines ausgestellten Rezeptes"/></eventCoding><destination><name value="Pflegeheim Immergrün"/><endpoint value="5-test-telematik-id-pflegeinrichtung"/></destination><sender><identifier><system value="https://gematik.de/fhir/sid/telematik-id"/><value value="5-test-telematik-id-praxis"/></identifier><display value="Praxis Hans Topp-Glücklich"/></sender><source><name value="DeltaCare Inc."/><software value="PraxisFix"/><version value="1.3.2"/><contact><system value="email"/><value value="issues@praxisfix-deltacare.de"/></contact><endpoint value="https://deltacare.de/praxisfix/issues"/></source><responsible><reference value="urn:uuid:13cbe426-b7fe-4280-94e2-efb3038682c0"/></responsible><focus><reference value="urn:uuid:6293e0d2-0ebb-4694-8c3d-28c764eed685"/></focus></MessageHeader></resource></entry><entry><fullUrl value="urn:uuid:6293e0d2-0ebb-4694-8c3d-28c764eed685"/><resource><ServiceRequest><id value="6293e0d2-0ebb-4694-8c3d-28c764eed685"/><meta><profile value="https://gematik.de/fhir/erp-servicerequest/StructureDefinition/erp-service-request-prescription-request"/></meta><extension url="https://gematik.de/fhir/erp-servicerequest/StructureDefinition/eprescription-token-ex"><valueIdentifier><system value="https://gematik.de/fhir/erp/sid/NamingSystemEPrescriptionToken"/><value value="Task/160.617.289.440.793/$accept?ac=BBA5beFdB59BDb65BfFdD4322a5EDf78D84Fcc4a99afa99DDb6ABBCdDDdf2FD5"/></valueIdentifier></extension><identifier><system value="https://gematik.de/fhir/erp-servicerequest/sid/RequestIdentifier"/><value value="8ddc6c37-cddb-496d-a526-bb1e67b1c87e"/></identifier><identifier><system value="https://gematik.de/fhir/erp-servicerequest/sid/ProcedureIdentifier"/><value value="be9914fe-5356-44e9-9713-14e3765aea17"/></identifier><basedOn><reference value="urn:uuid:3af51d77-2ecc-466f-b8d7-af2173309afb"/></basedOn><requisition><system value="https://gematik.de/fhir/erp-servicerequest/sid/ProcedureIdentifier"/><value value="be9914fe-5356-44e9-9713-14e3765aea17"/></requisition><status value="completed"/><intent value="order"/><priority value="urgent"/><code><coding><system value="https://gematik.de/fhir/erp-servicerequest/CodeSystem/service-request-type-cs"/><code value="prescription-request"/></coding></code><orderDetail><coding><system value="https://gematik.de/fhir/erp-servicerequest/CodeSystem/prescription-fullfillment-type-cs"/><code value="return-to-requester"/></coding></orderDetail><subject><reference value="Patient/1c61355e-c931-436b-b5d9-892243380d8c"/></subject><occurrenceDateTime value="2024-11-01T15:40:52.317287+01:00"/><authoredOn value="2024-11-01T15:40:52.317289+01:00"/><requester><reference value="Organization/13cbe426-b7fe-4280-94e2-efb3038682c0"/></requester><performer><identifier><system value="http://gematik.de/fhir/sid/KIM-Adresse"/><value value="practitioner@gluecklich.kim.telematik"/></identifier></performer><reasonCode><extension url="https://gematik.de/fhir/erp-servicerequest/StructureDefinition/remaining-supply-ex"><valueQuantity><value value="7.0"/><unit value="Stück"/></valueQuantity></extension><coding><system value="https://gematik.de/fhir/erp-servicerequest/CodeSystem/medication-request-reason-cs"/><code value="exhausted-range"/></coding><text value="Medikament läuft am 31.01.2025 aus. Es sind noch 7 stk übrig."/></reasonCode><reasonReference><reference value="uuid:96f1532a-c137-400c-9c35-0b83b76fab35"/></reasonReference><reasonReference><reference value="uuid:25f69830-5c26-41ab-8629-b6b30ec7da3f"/></reasonReference><note><time value="2024-11-01T15:40:52.317483+01:00"/><text value="Wird weiterhin benötigt, bitte um Verlängerung."/></note></ServiceRequest></resource></entry><entry><fullUrl value="urn:uuid:3af51d77-2ecc-466f-b8d7-af2173309afb"/><resource><MedicationRequest><id value="3af51d77-2ecc-466f-b8d7-af2173309afb"/><meta><profile value="https://fhir.kbv.de/StructureDefinition/KBV_PR_ERP_Prescription|1.1.0"/></meta><extension url="https://fhir.kbv.de/StructureDefinition/KBV_EX_ERP_EmergencyServicesFee"><valueBoolean value="false"/></extension><status value="active"/><intent value="order"/><medicationReference><reference value="urn:uuid:9b6c279f-c3ea-4d9a-a443-06ac3f916ef8"/></medicationReference><subject><reference value="urn:uuid:1c61355e-c931-436b-b5d9-892243380d8c"/></subject><authoredOn value="2024-11-01"/><requester><reference value="urn:uuid:0586f5c2-97fe-4006-bdfb-ef47929300b8"/></requester><insurance><reference value="urn:uuid:acae9adc-c9c6-4e26-9be2-5cc24d400e64"/></insurance><dosageInstruction><extension url="https://fhir.kbv.de/StructureDefinition/KBV_EX_ERP_DosageFlag"><valueBoolean value="true"/></extension><text value="2mal tägl. 5ml"/></dosageInstruction></MedicationRequest></resource></entry><entry><fullUrl value="urn:uuid:9b6c279f-c3ea-4d9a-a443-06ac3f916ef8"/><resource><Medication><id value="9b6c279f-c3ea-4d9a-a443-06ac3f916ef8"/><meta><profile value="https://fhir.kbv.de/StructureDefinition/KBV_PR_ERP_Medication_PZN|1.1.0"/></meta><extension url="https://fhir.kbv.de/StructureDefinition/KBV_EX_Base_Medication_Type"><valueCodeableConcept><coding><system value="http://snomed.info/sct"/><version value="http://snomed.info/sct/900000000000207008/version/20220331"/><code value="763158003"/><display value="Medicinal product (product)"/></coding></valueCodeableConcept></extension><extension url="https://fhir.kbv.de/StructureDefinition/KBV_EX_ERP_Medication_Category"><valueCoding><system value="https://fhir.kbv.de/CodeSystem/KBV_CS_ERP_Medication_Category"/><code value="00"/></valueCoding></extension><extension url="https://fhir.kbv.de/StructureDefinition/KBV_EX_ERP_Medication_Vaccine"><valueBoolean value="false"/></extension><extension url="http://fhir.de/StructureDefinition/normgroesse"><valueCode value="N1"/></extension><code><coding><system value="http://fhir.de/CodeSystem/ifa/pzn"/><code value="08585997"/></coding><text value="Prospan® Hustensaft 100ml"/></code><form><coding><system value="https://fhir.kbv.de/CodeSystem/KBV_CS_SFHIR_KBV_DARREICHUNGSFORM"/><code value="FLE"/></coding></form></Medication></resource></entry><entry><fullUrl value="urn:uuid:0586f5c2-97fe-4006-bdfb-ef47929300b8"/><resource><Practitioner><id value="0586f5c2-97fe-4006-bdfb-ef47929300b8"/><meta><profile value="https://fhir.kbv.de/StructureDefinition/KBV_PR_FOR_Practitioner|1.1.0"/></meta><identifier><type><coding><system value="http://terminology.hl7.org/CodeSystem/v2-0203"/><code value="LANR"/></coding></type><system value="https://fhir.kbv.de/NamingSystem/KBV_NS_Base_ANR"/><value value="838382202"/></identifier><identifier><type><coding><system value="http://terminology.hl7.org/CodeSystem/v2-0203"/><code value="PRN"/></coding></type><system value="https://gematik.de/fhir/sid/telematik-id"/><value value="1-838382202"/></identifier><name><use value="official"/><family value="Topp-Glücklich"><extension url="http://hl7.org/fhir/StructureDefinition/humanname-own-name"><valueString value="Topp-Glücklich"/></extension></family><given value="Hans"/><prefix value="Dr. med."/></name><qualification><code><coding><system value="https://fhir.kbv.de/CodeSystem/KBV_CS_FOR_Qualification_Type"/><code value="00"/></coding><text value="Arzt"/></code></qualification><qualification><code><coding><system value="https://fhir.kbv.de/CodeSystem/KBV_CS_FOR_Berufsbezeichnung"/><code value="Berufsbezeichnung"/></coding><text value="Hausarzt"/></code></qualification></Practitioner></resource></entry><entry><fullUrl value="urn:uuid:1c61355e-c931-436b-b5d9-892243380d8c"/><resource><Patient><id value="1c61355e-c931-436b-b5d9-892243380d8c"/><meta><profile value="https://gematik.de/fhir/erp-servicerequest/StructureDefinition/erp-service-request-patient"/></meta><identifier><system value="http://fhir.de/sid/gkv/kvid-10"/><value value="X234567890"/></identifier><name><use value="official"/><family value="Königsstein"><extension url="http://hl7.org/fhir/StructureDefinition/humanname-own-name"><valueString value="Königsstein"/></extension></family><given value="Ludger"/></name><birthDate value="1935-06-22"/><address><type value="both"/><line value="Musterstr. 1"><extension url="http://hl7.org/fhir/StructureDefinition/iso21090-ADXP-houseNumber"><valueString value="1"/></extension><extension url="http://hl7.org/fhir/StructureDefinition/iso21090-ADXP-streetName"><valueString value="Musterstr."/></extension></line><city value="Berlin"/><postalCode value="10623"/></address></Patient></resource></entry><entry><fullUrl value="urn:uuid:acae9adc-c9c6-4e26-9be2-5cc24d400e64"/><resource><Coverage><id value="acae9adc-c9c6-4e26-9be2-5cc24d400e64"/><meta><profile value="https://fhir.kbv.de/StructureDefinition/KBV_PR_FOR_Coverage|1.1.0"/></meta><extension url="http://fhir.de/StructureDefinition/gkv/besondere-personengruppe"><valueCoding><system value="https://fhir.kbv.de/CodeSystem/KBV_CS_SFHIR_KBV_PERSONENGRUPPE"/><code value="00"/></valueCoding></extension><extension url="http://fhir.de/StructureDefinition/gkv/dmp-kennzeichen"><valueCoding><system value="https://fhir.kbv.de/CodeSystem/KBV_CS_SFHIR_KBV_DMP"/><code value="00"/></valueCoding></extension><extension url="http://fhir.de/StructureDefinition/gkv/wop"><valueCoding><system value="https://fhir.kbv.de/CodeSystem/KBV_CS_SFHIR_ITA_WOP"/><code value="72"/></valueCoding></extension><extension url="http://fhir.de/StructureDefinition/gkv/versichertenart"><valueCoding><system value="https://fhir.kbv.de/CodeSystem/KBV_CS_SFHIR_KBV_VERSICHERTENSTATUS"/><code value="3"/></valueCoding></extension><status value="active"/><type><coding><system value="http://fhir.de/CodeSystem/versicherungsart-de-basis"/><code value="GKV"/></coding></type><beneficiary><reference value="urn:uuid:Patient/Example-Patient"/></beneficiary><period><end value="2040-04-01"/></period><payor><identifier><system value="http://fhir.de/sid/arge-ik/iknr"/><value value="108416214"/></identifier><display value="AOK Bayern Die Gesundh."/></payor></Coverage></resource></entry><entry><fullUrl value="urn:uuid:13cbe426-b7fe-4280-94e2-efb3038682c0"/><resource><Organization><id value="13cbe426-b7fe-4280-94e2-efb3038682c0"/><meta><profile value="https://gematik.de/fhir/erp-servicerequest/StructureDefinition/erp-service-request-organization"/><tag><system value="https://gematik.de/fhir/directory/CodeSystem/Origin"/><code value="owner"/></tag></meta><identifier><system value="https://gematik.de/fhir/sid/telematik-id"/><value value="1-031234567"/></identifier><name value="Pflegeheim Immergrün"/><address><type value="both"/><line value="Musterstr. 2"/><city value="Berlin"/><postalCode value="10623"/></address><contact><telecom><system value="phone"/><value value="0301234567"/></telecom><telecom><system value="email"/><value value="pflegeheim.immergrün.arzt@sana-pflegeheime.kim.telematik"/></telecom></contact></Organization></resource></entry></Bundle>