{"resourceType":"Bundle","id":"8784eeba-f382-496a-8a8d-f9ae7dd203f2","meta":{"profile":["https://gematik.de/fhir/erp-servicerequest/StructureDefinition/erp-service-request-message-container"]},"identifier":{"system":"urn:ietf:rfc:3986","value":"urn:uuid:8784eeba-f382-496a-8a8d-f9ae7dd203f2"},"type":"message","timestamp":"2024-11-01T14:18:54.243457+00:00","entry":[{"fullUrl":"urn:uuid:8f97548f-6745-412e-9bed-694e9b723923","resource":{"resourceType":"MessageHeader","id":"8f97548f-6745-412e-9bed-694e9b723923","meta":{"profile":["https://gematik.de/fhir/erp-servicerequest/StructureDefinition/erp-service-request-request-header"]},"eventCoding":{"system":"https://gematik.de/fhir/atf/CodeSystem/service-identifier-cs","code":"eRezept_Rezeptanforderung;Rezeptanfrage","display":"Anfrage an einen Arzt ein Rezept auszustellen"},"destination":[{"name":"Praxis Hans Topp-Glücklich","endpoint":"mailto:practitioner@test.kim.de"}],"sender":{"identifier":{"system":"https://gematik.de/fhir/sid/telematik-id","value":"5-test-telematik-id-pflegeinrichtung"},"display":"Pflegeheim Immergrün"},"source":{"name":"HealthCare-Source","software":"HealthCare-Software","version":"1.0.0","contact":{"system":"email","value":"info@hcs.email"},"endpoint":"mailto:healthcare-service@test.kim.de"},"responsible":{"reference":"urn:uuid:273eefa4-6663-4a1f-937a-c9ed2004be2e"},"focus":[{"reference":"urn:uuid:b5e0292a-a91d-4ca4-92e2-3b8e9e6a42e5"}]}},{"fullUrl":"urn:uuid:b5e0292a-a91d-4ca4-92e2-3b8e9e6a42e5","resource":{"resourceType":"ServiceRequest","id":"b5e0292a-a91d-4ca4-92e2-3b8e9e6a42e5","meta":{"profile":["https://gematik.de/fhir/erp-servicerequest/StructureDefinition/erp-service-request-prescription-request"]},"identifier":[{"system":"https://gematik.de/fhir/erp-servicerequest/sid/RequestIdentifier","value":"fbe3a9c2-c776-43c1-932e-030a42b52482"},{"system":"https://gematik.de/fhir/erp-servicerequest/sid/ProcedureIdentifier","value":"961ebc16-7b4f-4bb7-946f-359ec19f0ced"}],"basedOn":[{"reference":"uuid:08e57c1f-c4d6-459b-96e3-89d4662e31ff"}],"requisition":{"system":"https://gematik.de/fhir/erp-servicerequest/sid/ProcedureIdentifier","value":"961ebc16-7b4f-4bb7-946f-359ec19f0ced"},"status":"active","intent":"order","priority":"urgent","code":{"coding":[{"system":"https://gematik.de/fhir/erp-servicerequest/CodeSystem/service-request-type-cs","code":"prescription-request"}]},"orderDetail":[{"coding":[{"system":"https://gematik.de/fhir/erp-servicerequest/CodeSystem/prescription-fullfillment-type-cs","code":"return-to-requester"}]}],"subject":{"reference":"Patient/1f26a7bb-df19-40ac-8cd0-c0d8d143bc98"},"occurrenceDateTime":"2024-11-01T15:18:54.242993+01:00","authoredOn":"2024-11-01T15:18:54.242995+01:00","requester":{"reference":"Organization/273eefa4-6663-4a1f-937a-c9ed2004be2e"},"performer":[{"identifier":{"system":"http://gematik.de/fhir/sid/KIM-Adresse","value":"practitioner@gluecklich.kim.telematik"}}],"reasonCode":[{"extension":[{"url":"https://gematik.de/fhir/erp-servicerequest/StructureDefinition/remaining-supply-ex","valueQuantity":{"value":7,"unit":"Stück"}}],"coding":[{"system":"https://gematik.de/fhir/erp-servicerequest/CodeSystem/medication-request-reason-cs","code":"exhausted-range"}],"text":"Medikament läuft am 31.01.2025 aus. Es sind noch 7 stk übrig."}],"reasonReference":[{"reference":"uuid:304e9cff-5077-4af9-847d-c39ab1ee53da"},{"reference":"uuid:a034e856-ff47-40fd-86cb-1a9bfb2c899b"}],"note":[{"time":"2024-11-01T15:18:54.243166+01:00","text":"Wird weiterhin benötigt, bitte um Verlängerung."}]}},{"fullUrl":"urn:uuid:0dd9f382-d313-451b-ac7b-375e9bb3b50a","resource":{"resourceType":"Medication","id":"0dd9f382-d313-451b-ac7b-375e9bb3b50a","meta":{"profile":["https://fhir.kbv.de/StructureDefinition/KBV_PR_ERP_Medication_PZN|1.1.0"]},"extension":[{"url":"https://fhir.kbv.de/StructureDefinition/KBV_EX_Base_Medication_Type","valueCodeableConcept":{"coding":[{"system":"http://snomed.info/sct","version":"http://snomed.info/sct/900000000000207008/version/20220331","code":"763158003","display":"Medicinal product (product)"}]}},{"url":"https://fhir.kbv.de/StructureDefinition/KBV_EX_ERP_Medication_Category","valueCoding":{"system":"https://fhir.kbv.de/CodeSystem/KBV_CS_ERP_Medication_Category","code":"00"}},{"url":"https://fhir.kbv.de/StructureDefinition/KBV_EX_ERP_Medication_Vaccine","valueBoolean":false},{"url":"http://fhir.de/StructureDefinition/normgroesse","valueCode":"N1"}],"code":{"coding":[{"system":"http://fhir.de/CodeSystem/ifa/pzn","code":"08585997"}],"text":"Prospan® Hustensaft 100ml"},"form":{"coding":[{"system":"https://fhir.kbv.de/CodeSystem/KBV_CS_SFHIR_KBV_DARREICHUNGSFORM","code":"FLE"}]}}},{"fullUrl":"urn:uuid:1f26a7bb-df19-40ac-8cd0-c0d8d143bc98","resource":{"resourceType":"Patient","id":"1f26a7bb-df19-40ac-8cd0-c0d8d143bc98","meta":{"profile":["https://gematik.de/fhir/erp-servicerequest/StructureDefinition/erp-service-request-patient"]},"identifier":[{"system":"http://fhir.de/sid/gkv/kvid-10","value":"X234567890"}],"name":[{"use":"official","family":"Königsstein","_family":{"extension":[{"url":"http://hl7.org/fhir/StructureDefinition/humanname-own-name","valueString":"Königsstein"}]},"given":["Ludger"]}],"birthDate":"1935-06-22","address":[{"type":"both","line":["Musterstr. 1"],"_line":[{"extension":[{"url":"http://hl7.org/fhir/StructureDefinition/iso21090-ADXP-houseNumber","valueString":"1"},{"url":"http://hl7.org/fhir/StructureDefinition/iso21090-ADXP-streetName","valueString":"Musterstr."}]}],"city":"Berlin","postalCode":"10623"}]}},{"fullUrl":"urn:uuid:08e57c1f-c4d6-459b-96e3-89d4662e31ff","resource":{"resourceType":"MedicationRequest","id":"08e57c1f-c4d6-459b-96e3-89d4662e31ff","meta":{"profile":["https://gematik.de/fhir/erp-servicerequest/StructureDefinition/erp-service-request-medication-request"]},"extension":[{"url":"https://gematik.de/fhir/erp-servicerequest/StructureDefinition/prescription-id-ex","valueIdentifier":{"system":"https://gematik.de/fhir/erp/NamingSystem/GEM_ERP_NS_PrescriptionId","value":"160.100.000.000.001.36"}}],"status":"active","intent":"order","medicationReference":{"reference":"urn:uuid:0dd9f382-d313-451b-ac7b-375e9bb3b50a"},"subject":{"reference":"urn:uuid:1f26a7bb-df19-40ac-8cd0-c0d8d143bc98"},"authoredOn":"2024-11-01T15:18:54.242496+01:00","dosageInstruction":[{"text":"2mal tägl. 5ml"}],"dispenseRequest":{"quantity":{"value":1,"system":"http://unitsofmeasure.org","code":"{Package}"}}}},{"fullUrl":"urn:uuid:273eefa4-6663-4a1f-937a-c9ed2004be2e","resource":{"resourceType":"Organization","id":"273eefa4-6663-4a1f-937a-c9ed2004be2e","meta":{"profile":["https://gematik.de/fhir/erp-servicerequest/StructureDefinition/erp-service-request-organization"],"tag":[{"system":"https://gematik.de/fhir/directory/CodeSystem/Origin","code":"owner"}]},"identifier":[{"system":"https://gematik.de/fhir/sid/telematik-id","value":"1-031234567"}],"name":"Pflegeheim Immergrün","address":[{"type":"both","line":["Musterstr. 2"],"city":"Berlin","postalCode":"10623"}],"contact":[{"telecom":[{"system":"phone","value":"0301234567"},{"system":"email","value":"pflegeheim.immergrün.arzt@sana-pflegeheime.kim.telematik"}]}]}},{"fullUrl":"urn:uuid:304e9cff-5077-4af9-847d-c39ab1ee53da","resource":{"resourceType":"Observation","id":"304e9cff-5077-4af9-847d-c39ab1ee53da","meta":{"profile":["https://gematik.de/fhir/erp-servicerequest/StructureDefinition/erp-service-request-remaining-medication"]},"status":"final","code":{"coding":[{"system":"https://gematik.de/fhir/erp-servicerequest/CodeSystem/medication-observation-cs","code":"range-of-medication"}]},"subject":{"reference":"urn:uuid:1f26a7bb-df19-40ac-8cd0-c0d8d143bc98"},"valueDateTime":"2023-01-31"}},{"fullUrl":"urn:uuid:a034e856-ff47-40fd-86cb-1a9bfb2c899b","resource":{"resourceType":"Observation","id":"a034e856-ff47-40fd-86cb-1a9bfb2c899b","meta":{"profile":["https://gematik.de/fhir/erp-servicerequest/StructureDefinition/erp-service-request-remaining-medication"]},"status":"final","code":{"coding":[{"system":"https://gematik.de/fhir/erp-servicerequest/CodeSystem/medication-observation-cs","code":"range-of-medication"}]},"subject":{"reference":"urn:uuid:1f26a7bb-df19-40ac-8cd0-c0d8d143bc98"},"valueQuantity":{"value":7,"unit":"stk"}}}]}