<?xml version='1.0' encoding='utf-8'?>
<Bundle xmlns="http://hl7.org/fhir"><id value="d8f63775-923f-4a99-8245-97ce9bac2331"/><meta><profile value="https://gematik.de/fhir/erp-servicerequest/StructureDefinition/erp-service-request-message-container"/></meta><identifier><system value="urn:ietf:rfc:3986"/><value value="urn:uuid:d8f63775-923f-4a99-8245-97ce9bac2331"/></identifier><type value="message"/><timestamp value="2024-10-30T14:38:31.857408+00:00"/><entry><fullUrl value="urn:uuid:1c763b1c-3b4f-48f3-a613-9556febaef2f"/><resource><MessageHeader><id value="1c763b1c-3b4f-48f3-a613-9556febaef2f"/><meta><profile value="https://gematik.de/fhir/erp-servicerequest/StructureDefinition/erp-service-request-request-header"/></meta><eventCoding><system value="https://gematik.de/fhir/atf/CodeSystem/service-identifier-cs"/><code value="eRezept_Rezeptanforderung;Rezeptbestaetigung"/><display value="Bestätigung und Übermittlung eines ausgestellten Rezeptes"/></eventCoding><destination><name value="Pflegeheim Immergrün"/><endpoint value="5-test-telematik-id-pflegeinrichtung"/></destination><sender><identifier><system value="https://gematik.de/fhir/sid/telematik-id"/><value value="5-test-telematik-id-praxis"/></identifier><display value="Praxis Hans Topp-Glücklich"/></sender><source><name value="DeltaCare Inc."/><software value="PraxisFix"/><version value="1.3.2"/><contact><system value="email"/><value value="issues@praxisfix-deltacare.de"/></contact><endpoint value="https://deltacare.de/praxisfix/issues"/></source><responsible><reference value="urn:uuid:7d96144f-c5bf-40b8-9272-fcb3fa5ce3c2"/></responsible><focus><reference value="urn:uuid:99124356-d833-4d93-96ae-b0e578458c45"/></focus></MessageHeader></resource></entry><entry><fullUrl value="urn:uuid:99124356-d833-4d93-96ae-b0e578458c45"/><resource><ServiceRequest><id value="99124356-d833-4d93-96ae-b0e578458c45"/><meta><profile value="https://gematik.de/fhir/erp-servicerequest/StructureDefinition/erp-service-request-prescription-request"/></meta><extension url="https://gematik.de/fhir/erp-servicerequest/StructureDefinition/eprescription-token-ex"><valueIdentifier><system value="https://gematik.de/fhir/erp/sid/NamingSystemEPrescriptionToken"/><value value="Task/160.106.778.696.279/$accept?ac=9aAdee2Bb9cEa6ADf49120fe9f3a6C7d3B8d0bfD7Ef3D02d0dE89d9Dcdc1cBF7"/></valueIdentifier></extension><identifier><system value="https://gematik.de/fhir/erp-servicerequest/sid/RequestIdentifier"/><value value="a6dabbb7-be81-4c55-add9-aa30f070d199"/></identifier><identifier><system value="https://gematik.de/fhir/erp-servicerequest/sid/ProcedureIdentifier"/><value value="b4da5f81-e5df-48e7-80ca-f2d3dab79cb6"/></identifier><basedOn><reference value="urn:uuid:c0146e6a-8aad-49ec-bd60-eb1664a30986"/></basedOn><requisition><system value="https://gematik.de/fhir/erp-servicerequest/sid/ProcedureIdentifier"/><value value="b4da5f81-e5df-48e7-80ca-f2d3dab79cb6"/></requisition><status value="completed"/><intent value="order"/><code><coding><system value="https://gematik.de/fhir/erp-servicerequest/CodeSystem/service-request-type-cs"/><code value="prescription-request"/></coding></code><orderDetail><coding><system value="https://gematik.de/fhir/erp-servicerequest/CodeSystem/prescription-fullfillment-type-cs"/><code value="return-to-requester"/></coding></orderDetail><subject><reference value="urn:uuid:f91add65-c7a5-4010-8d11-993f7a8a0d33"/></subject><occurrenceDateTime value="2024-10-30T15:38:30.657831+01:00"/><authoredOn value="2024-10-30T15:38:30.657836+01:00"/><requester><reference value="urn:uuid:7d96144f-c5bf-40b8-9272-fcb3fa5ce3c2"/></requester><performer><identifier><system value="http://gematik.de/fhir/sid/KIM-Adresse"/><value value="practitioner@gluecklich.kim.telematik"/></identifier></performer><reasonCode><coding><system value="https://gematik.de/fhir/erp-servicerequest/CodeSystem/medication-request-reason-cs"/><code value="medication-runs-out"/></coding></reasonCode><reasonReference><reference value="urn:uuid:602ecf1d-4a8a-4580-9a9f-071f9a84b165"/></reasonReference><reasonReference><reference value="urn:uuid:4f9c11c7-e836-46be-aea5-91868e4538d4"/></reasonReference><note><text value="Medikament läuft am 31.01.2025 aus. Es sind noch 7 stk übrig."/></note></ServiceRequest></resource></entry><entry><fullUrl value="urn:uuid:c0146e6a-8aad-49ec-bd60-eb1664a30986"/><resource><MedicationRequest><id value="c0146e6a-8aad-49ec-bd60-eb1664a30986"/><meta><profile value="https://fhir.kbv.de/StructureDefinition/KBV_PR_ERP_Prescription|1.1.0"/></meta><extension url="https://fhir.kbv.de/StructureDefinition/KBV_EX_ERP_EmergencyServicesFee"><valueBoolean value="false"/></extension><status value="active"/><intent value="order"/><medicationReference><reference value="urn:uuid:c605b078-8cc4-40e7-8d7b-af0d26763ebd"/></medicationReference><subject><reference value="urn:uuid:7d7ea715-32a7-4043-8ca6-75e2d7277a9c"/></subject><authoredOn value="2024-10-30"/><requester><reference value="urn:uuid:4a910a93-bcce-446a-b50b-29203f4768e7"/></requester><insurance><reference value="urn:uuid:ec0889e4-feea-468d-9e58-18f5fb3d463e"/></insurance><dosageInstruction><extension url="https://fhir.kbv.de/StructureDefinition/KBV_EX_ERP_DosageFlag"><valueBoolean value="true"/></extension><text value="2mal tägl. 5ml"/></dosageInstruction></MedicationRequest></resource></entry><entry><fullUrl value="urn:uuid:c605b078-8cc4-40e7-8d7b-af0d26763ebd"/><resource><Medication><id value="c605b078-8cc4-40e7-8d7b-af0d26763ebd"/><meta><profile value="https://fhir.kbv.de/StructureDefinition/KBV_PR_ERP_Medication_PZN|1.1.0"/></meta><extension url="https://fhir.kbv.de/StructureDefinition/KBV_EX_Base_Medication_Type"><valueCodeableConcept><coding><system value="http://snomed.info/sct"/><version value="http://snomed.info/sct/900000000000207008/version/20220331"/><code value="763158003"/><display value="Medicinal product (product)"/></coding></valueCodeableConcept></extension><extension url="https://fhir.kbv.de/StructureDefinition/KBV_EX_ERP_Medication_Category"><valueCoding><system value="https://fhir.kbv.de/CodeSystem/KBV_CS_ERP_Medication_Category"/><code value="00"/></valueCoding></extension><extension url="https://fhir.kbv.de/StructureDefinition/KBV_EX_ERP_Medication_Vaccine"><valueBoolean value="false"/></extension><extension url="http://fhir.de/StructureDefinition/normgroesse"><valueCode value="N1"/></extension><code><coding><system value="http://fhir.de/CodeSystem/ifa/pzn"/><code value="08585997"/></coding><text value="Prospan® Hustensaft 100ml"/></code><form><coding><system value="https://fhir.kbv.de/CodeSystem/KBV_CS_SFHIR_KBV_DARREICHUNGSFORM"/><code value="FLE"/></coding></form></Medication></resource></entry><entry><fullUrl value="urn:uuid:4a910a93-bcce-446a-b50b-29203f4768e7"/><resource><Practitioner><id value="4a910a93-bcce-446a-b50b-29203f4768e7"/><meta><profile value="https://fhir.kbv.de/StructureDefinition/KBV_PR_FOR_Practitioner|1.1.0"/></meta><identifier><type><coding><system value="http://terminology.hl7.org/CodeSystem/v2-0203"/><code value="LANR"/></coding></type><system value="https://fhir.kbv.de/NamingSystem/KBV_NS_Base_ANR"/><value value="838382202"/></identifier><identifier><type><coding><system value="http://terminology.hl7.org/CodeSystem/v2-0203"/><code value="PRN"/></coding></type><system value="https://gematik.de/fhir/sid/telematik-id"/><value value="1-838382202"/></identifier><name><use value="official"/><family value="Topp-Glücklich"><extension url="http://hl7.org/fhir/StructureDefinition/humanname-own-name"><valueString value="Topp-Glücklich"/></extension></family><given value="Hans"/><prefix value="Dr. med."/></name><qualification><code><coding><system value="https://fhir.kbv.de/CodeSystem/KBV_CS_FOR_Qualification_Type"/><code value="00"/></coding><text value="Arzt"/></code></qualification><qualification><code><coding><system value="https://fhir.kbv.de/CodeSystem/KBV_CS_FOR_Berufsbezeichnung"/><code value="Berufsbezeichnung"/></coding><text value="Hausarzt"/></code></qualification></Practitioner></resource></entry><entry><fullUrl value="urn:uuid:7d7ea715-32a7-4043-8ca6-75e2d7277a9c"/><resource><Patient><id value="7d7ea715-32a7-4043-8ca6-75e2d7277a9c"/><meta><profile value="https://fhir.kbv.de/StructureDefinition/KBV_PR_FOR_Patient|1.1.0"/></meta><identifier><type><coding><system value="http://fhir.de/CodeSystem/identifier-type-de-basis"/><code value="GKV"/></coding></type><system value="http://fhir.de/sid/gkv/kvid-10"/><value value="X234567890"/></identifier><name><use value="official"/><family value="Königsstein"><extension url="http://hl7.org/fhir/StructureDefinition/humanname-own-name"><valueString value="Königsstein"/></extension></family><given value="Ludger"/></name><birthDate value="1935-06-22"/><address><type value="both"/><line value="Musterstr. 1"><extension url="http://hl7.org/fhir/StructureDefinition/iso21090-ADXP-houseNumber"><valueString value="1"/></extension><extension url="http://hl7.org/fhir/StructureDefinition/iso21090-ADXP-streetName"><valueString value="Musterstr."/></extension></line><city value="Berlin"/><postalCode value="10623"/></address></Patient></resource></entry><entry><fullUrl value="urn:uuid:ec0889e4-feea-468d-9e58-18f5fb3d463e"/><resource><Coverage><id value="ec0889e4-feea-468d-9e58-18f5fb3d463e"/><meta><profile value="https://fhir.kbv.de/StructureDefinition/KBV_PR_FOR_Coverage|1.1.0"/></meta><extension url="http://fhir.de/StructureDefinition/gkv/besondere-personengruppe"><valueCoding><system value="https://fhir.kbv.de/CodeSystem/KBV_CS_SFHIR_KBV_PERSONENGRUPPE"/><code value="00"/></valueCoding></extension><extension url="http://fhir.de/StructureDefinition/gkv/dmp-kennzeichen"><valueCoding><system value="https://fhir.kbv.de/CodeSystem/KBV_CS_SFHIR_KBV_DMP"/><code value="00"/></valueCoding></extension><extension url="http://fhir.de/StructureDefinition/gkv/wop"><valueCoding><system value="https://fhir.kbv.de/CodeSystem/KBV_CS_SFHIR_ITA_WOP"/><code value="72"/></valueCoding></extension><extension url="http://fhir.de/StructureDefinition/gkv/versichertenart"><valueCoding><system value="https://fhir.kbv.de/CodeSystem/KBV_CS_SFHIR_KBV_VERSICHERTENSTATUS"/><code value="3"/></valueCoding></extension><status value="active"/><type><coding><system value="http://fhir.de/CodeSystem/versicherungsart-de-basis"/><code value="GKV"/></coding></type><beneficiary><reference value="urn:uuid:Patient/Example-Patient"/></beneficiary><period><end value="2040-04-01"/></period><payor><identifier><system value="http://fhir.de/sid/arge-ik/iknr"/><value value="108416214"/></identifier><display value="AOK Bayern Die Gesundh."/></payor></Coverage></resource></entry><entry><fullUrl value="urn:uuid:7d96144f-c5bf-40b8-9272-fcb3fa5ce3c2"/><resource><Organization><id value="7d96144f-c5bf-40b8-9272-fcb3fa5ce3c2"/><meta><profile value="https://gematik.de/fhir/erp-servicerequest/StructureDefinition/erp-service-request-organization"/></meta><identifier><type><coding><system value="https://gematik.de/fhir/directory/CodeSystem/EndpointDirectoryConnectionType"/><code value="kim-2.0"/></coding></type><system value="http://gematik.de/fhir/sid/KIM-Adresse"/><value value="pflegeheim.immergrün.arzt@sana-pflegeheime.kim.telematik"/></identifier><identifier><type><coding><system value="http://terminology.hl7.org/CodeSystem/v2-0203"/><code value="PRN"/></coding></type><system value="https://gematik.de/fhir/sid/telematik-id"/><value value="1-031234567"/></identifier><identifier><type><coding><system value="http://terminology.hl7.org/CodeSystem/v2-0203"/><code value="BSNR"/></coding></type><system value="https://fhir.kbv.de/NamingSystem/KBV_NS_Base_BSNR"/><value value="031234567"/></identifier><name value="Pflegeheim Immergrün"/><telecom><system value="phone"/><value value="0301234567"/></telecom><address><type value="both"/><line value="Musterstr. 2"><extension url="http://hl7.org/fhir/StructureDefinition/iso21090-ADXP-houseNumber"><valueString value="2"/></extension><extension url="http://hl7.org/fhir/StructureDefinition/iso21090-ADXP-streetName"><valueString value="Musterstr."/></extension></line><city value="Berlin"/><postalCode value="10623"/></address></Organization></resource></entry><entry><fullUrl value="urn:uuid:99124356-d833-4d93-96ae-b0e578458c45"/><resource><ServiceRequest><id value="99124356-d833-4d93-96ae-b0e578458c45"/><meta><profile value="https://gematik.de/fhir/erp-servicerequest/StructureDefinition/erp-service-request-prescription-request"/></meta><extension url="https://gematik.de/fhir/erp-servicerequest/StructureDefinition/eprescription-token-ex"><valueIdentifier><system value="https://gematik.de/fhir/erp/sid/NamingSystemEPrescriptionToken"/><value value="Task/160.106.778.696.279/$accept?ac=9aAdee2Bb9cEa6ADf49120fe9f3a6C7d3B8d0bfD7Ef3D02d0dE89d9Dcdc1cBF7"/></valueIdentifier></extension><identifier><system value="https://gematik.de/fhir/erp-servicerequest/sid/RequestIdentifier"/><value value="a6dabbb7-be81-4c55-add9-aa30f070d199"/></identifier><identifier><system value="https://gematik.de/fhir/erp-servicerequest/sid/ProcedureIdentifier"/><value value="b4da5f81-e5df-48e7-80ca-f2d3dab79cb6"/></identifier><basedOn><reference value="urn:uuid:c0146e6a-8aad-49ec-bd60-eb1664a30986"/></basedOn><requisition><system value="https://gematik.de/fhir/erp-servicerequest/sid/ProcedureIdentifier"/><value value="b4da5f81-e5df-48e7-80ca-f2d3dab79cb6"/></requisition><status value="completed"/><intent value="order"/><code><coding><system value="https://gematik.de/fhir/erp-servicerequest/CodeSystem/service-request-type-cs"/><code value="prescription-request"/></coding></code><orderDetail><coding><system value="https://gematik.de/fhir/erp-servicerequest/CodeSystem/prescription-fullfillment-type-cs"/><code value="return-to-requester"/></coding></orderDetail><subject><reference value="urn:uuid:f91add65-c7a5-4010-8d11-993f7a8a0d33"/></subject><occurrenceDateTime value="2024-10-30T15:38:30.657831+01:00"/><authoredOn value="2024-10-30T15:38:30.657836+01:00"/><requester><reference value="urn:uuid:7d96144f-c5bf-40b8-9272-fcb3fa5ce3c2"/></requester><performer><identifier><system value="http://gematik.de/fhir/sid/KIM-Adresse"/><value value="practitioner@gluecklich.kim.telematik"/></identifier></performer><reasonCode><coding><system value="https://gematik.de/fhir/erp-servicerequest/CodeSystem/medication-request-reason-cs"/><code value="medication-runs-out"/></coding></reasonCode><reasonReference><reference value="urn:uuid:602ecf1d-4a8a-4580-9a9f-071f9a84b165"/></reasonReference><reasonReference><reference value="urn:uuid:4f9c11c7-e836-46be-aea5-91868e4538d4"/></reasonReference><note><text value="Medikament läuft am 31.01.2025 aus. Es sind noch 7 stk übrig."/></note></ServiceRequest></resource></entry></Bundle>