<?xml version='1.0' encoding='utf-8'?>
<Bundle xmlns="http://hl7.org/fhir"><id value="fc5b4cbb-0275-4c69-af9b-b3b232a37dc8"/><meta><profile value="https://gematik.de/fhir/erp-servicerequest/StructureDefinition/erp-service-request-message-container"/></meta><identifier><system value="urn:ietf:rfc:3986"/><value value="urn:uuid:fc5b4cbb-0275-4c69-af9b-b3b232a37dc8"/></identifier><type value="message"/><timestamp value="2024-11-01T14:18:57.803106+00:00"/><entry><fullUrl value="urn:uuid:8f5d14a2-ae54-467e-b7ec-7f0fa88b3580"/><resource><MessageHeader><id value="8f5d14a2-ae54-467e-b7ec-7f0fa88b3580"/><meta><profile value="https://gematik.de/fhir/erp-servicerequest/StructureDefinition/erp-service-request-request-header"/></meta><eventCoding><system value="https://gematik.de/fhir/atf/CodeSystem/service-identifier-cs"/><code value="eRezept_Rezeptanforderung;Abgabebestaetigung"/><display value="Bestätigung der Erfüllung und Abgabe eines Medikamentes"/></eventCoding><destination><name value="Pflegeheim Immergrün"/><endpoint value="5-test-telematik-id-pflegeinrichtung"/></destination><sender><identifier><system value="https://gematik.de/fhir/sid/telematik-id"/><value value="5-test-telematik-id-apotheke"/></identifier><display value="Test Apotheke"/></sender><source><name value="ApoSoft Gmbh"/><software value="ApoFlott"/><version value="1.1.3"/><contact><system value="email"/><value value="issues@apo-flott.de"/></contact><endpoint value="https://aposoft.de/issues"/></source><responsible><reference value="urn:uuid:06be7194-fa2e-46fd-8b3a-74d9aef99ad7"/></responsible><focus><reference value="urn:uuid:57a891b7-7ab6-421e-818d-ccd19b09dcb8"/></focus></MessageHeader></resource></entry><entry><fullUrl value="urn:uuid:57a891b7-7ab6-421e-818d-ccd19b09dcb8"/><resource><ServiceRequest><id value="57a891b7-7ab6-421e-818d-ccd19b09dcb8"/><meta><profile value="https://gematik.de/fhir/erp-servicerequest/StructureDefinition/erp-service-request-dispense-request"/></meta><identifier><system value="https://gematik.de/fhir/erp-servicerequest/sid/RequestIdentifier"/><value value="fbe3a9c2-c776-43c1-932e-030a42b52482"/></identifier><identifier><system value="https://gematik.de/fhir/erp-servicerequest/sid/ProcedureIdentifier"/><value value="b5e0292a-a91d-4ca4-92e2-3b8e9e6a42e5"/></identifier><basedOn><reference value="uuid:f6ca73cc-7127-4b33-b768-19bbb49bf30f"/></basedOn><requisition><system value="https://gematik.de/fhir/erp-servicerequest/sid/ProcedureIdentifier"/><value value="b5e0292a-a91d-4ca4-92e2-3b8e9e6a42e5"/></requisition><status value="completed"/><intent value="filler-order"/><priority value="urgent"/><code><coding><system value="https://gematik.de/fhir/erp-servicerequest/CodeSystem/service-request-type-cs"/><code value="dispense-request"/></coding></code><subject><reference value="Patient/57e3698a-c135-43f9-a046-72515cef90d8"/></subject><occurrenceDateTime value="2024-11-01T15:18:56.773064+01:00"/><authoredOn value="2024-11-01T15:18:56.773071+01:00"/><requester><reference value="Organization/273eefa4-6663-4a1f-937a-c9ed2004be2e"/></requester><performer><identifier><system value="http://gematik.de/fhir/sid/KIM-Adresse"/><value value="Test Apotheke"/></identifier></performer><note><time value="2024-11-01T15:18:56.773148+01:00"/><text value="Bitte wie üblich zur Abholung bereitlegen."/></note></ServiceRequest></resource></entry><entry><fullUrl value="urn:uuid:None"/><resource><Bundle><type value="transaction"/><entry><fullUrl value="http://erp-servicerequest-test.de/MedicationDispense/064850b1-8b7c-41de-acd7-da3c84abd5a3"/><resource><MedicationDispense><id value="064850b1-8b7c-41de-acd7-da3c84abd5a3"/><meta><profile value="https://gematik.de/fhir/erp/StructureDefinition/GEM_ERP_PR_MedicationDispense|1.2"/></meta><contained><Medication><id value="4414aef2-6a05-4bc8-bcd9-fd9b96d6ef00"/><meta><profile value="https://fhir.kbv.de/StructureDefinition/KBV_PR_ERP_Medication_PZN|1.1.0"/></meta><code><coding><system value="http://fhir.de/CodeSystem/ifa/pzn"/><code value="08585997"/></coding><text value="Prospan® Hustensaft 100ml N1"/></code></Medication></contained><identifier><use value="official"/><system value="https://gematik.de/fhir/erp/NamingSystem/GEM_ERP_NS_PrescriptionId"/><value value="160.100.000.000.002.36"/></identifier><status value="completed"/><medicationReference><reference value="urn:uuid:#4414aef2-6a05-4bc8-bcd9-fd9b96d6ef00"/></medicationReference><subject><reference value="urn:uuid:X123456789"/></subject><performer><actor><identifier><system value="https://gematik.de/fhir/sid/telematik-id"/><value value="12345678901234567890"/></identifier></actor></performer><whenHandedOver value="2020-04-16T13:44:27.957000+00:00"/><dosageInstruction><sequence value="1"/><text value="Eine Tablette täglich"/><timing><repeat><frequency value="1"/><period value="1.0"/><periodUnit value="d"/></repeat></timing><doseAndRate><type><coding><code value="ordered"/></coding></type><doseQuantity><value value="1.0"/><unit value="tablet"/></doseQuantity></doseAndRate></dosageInstruction></MedicationDispense></resource></entry></Bundle></resource></entry><entry><fullUrl value="urn:uuid:57e3698a-c135-43f9-a046-72515cef90d8"/><resource><Patient><id value="57e3698a-c135-43f9-a046-72515cef90d8"/><meta><profile value="https://gematik.de/fhir/erp-servicerequest/StructureDefinition/erp-service-request-patient"/></meta><identifier><system value="http://fhir.de/sid/gkv/kvid-10"/><value value="X234567890"/></identifier><name><use value="official"/><family value="Königsstein"><extension url="http://hl7.org/fhir/StructureDefinition/humanname-own-name"><valueString value="Königsstein"/></extension></family><given value="Ludger"/></name><birthDate value="1935-06-22"/><address><type value="both"/><line value="Musterstr. 1"><extension url="http://hl7.org/fhir/StructureDefinition/iso21090-ADXP-houseNumber"><valueString value="1"/></extension><extension url="http://hl7.org/fhir/StructureDefinition/iso21090-ADXP-streetName"><valueString value="Musterstr."/></extension></line><city value="Berlin"/><postalCode value="10623"/></address></Patient></resource></entry><entry><fullUrl value="urn:uuid:06be7194-fa2e-46fd-8b3a-74d9aef99ad7"/><resource><Organization><id value="06be7194-fa2e-46fd-8b3a-74d9aef99ad7"/><meta><profile value="https://gematik.de/fhir/erp-servicerequest/StructureDefinition/erp-service-request-organization"/><tag><system value="https://gematik.de/fhir/directory/CodeSystem/Origin"/><code value="owner"/></tag></meta><identifier><system value="https://gematik.de/fhir/sid/telematik-id"/><value value="1-431234567"/></identifier><name value="Adler Apotheke"/><address><type value="both"/><line value="Malerstraße. 1"/><city value="Berlin"/><postalCode value="10523"/></address><contact><telecom><system value="phone"/><value value="0305234567"/></telecom><telecom><system value="email"/><value value="apotheke@kim.telematik.de"/></telecom></contact></Organization></resource></entry></Bundle>