{"resourceType":"Bundle","id":"36adcf5d-22f6-47cb-9a75-68ba2ad220d9","meta":{"profile":["https://gematik.de/fhir/erp-servicerequest/StructureDefinition/erp-service-request-message-container"]},"identifier":{"system":"urn:ietf:rfc:3986","value":"urn:uuid:36adcf5d-22f6-47cb-9a75-68ba2ad220d9"},"type":"message","timestamp":"2024-11-01T14:18:56.773374+00:00","entry":[{"fullUrl":"urn:uuid:6b0e37d5-b1e5-4e80-8c20-955df593877c","resource":{"resourceType":"MessageHeader","id":"6b0e37d5-b1e5-4e80-8c20-955df593877c","meta":{"profile":["https://gematik.de/fhir/erp-servicerequest/StructureDefinition/erp-service-request-request-header"]},"eventCoding":{"system":"https://gematik.de/fhir/atf/CodeSystem/service-identifier-cs","code":"eRezept_Rezeptanforderung;Abgabeanfrage","display":"Anfrage zur Erfüllung eines Rezeptes und Abgabe des Medikaments"},"destination":[{"name":"Test Apotheke","endpoint":"5-test-telematik-id-apotheke"}],"sender":{"identifier":{"system":"https://gematik.de/fhir/sid/telematik-id","value":"5-test-telematik-id-pflegeinrichtung"},"display":"Pflegeheim Immergrün"},"source":{"name":"HealthCare-Source","software":"HealthCare-Software","version":"1.0.0","contact":{"system":"email","value":"info@hcs.email"},"endpoint":"mailto:healthcare-service@test.kim.de"},"responsible":{"reference":"urn:uuid:33861b24-404c-47f3-a976-a4c5c059893c"},"focus":[{"reference":"urn:uuid:57a891b7-7ab6-421e-818d-ccd19b09dcb8"}]}},{"fullUrl":"urn:uuid:57a891b7-7ab6-421e-818d-ccd19b09dcb8","resource":{"resourceType":"ServiceRequest","id":"57a891b7-7ab6-421e-818d-ccd19b09dcb8","meta":{"profile":["https://gematik.de/fhir/erp-servicerequest/StructureDefinition/erp-service-request-dispense-request"]},"extension":[{"url":"https://gematik.de/fhir/erp-servicerequest/StructureDefinition/eprescription-token-ex","valueIdentifier":{"system":"https://gematik.de/fhir/erp/sid/NamingSystemEPrescriptionToken","value":"Task/160.819.358.313.793/$accept?ac=10bEcd8ACcC14f150c8cfAA7C6729Ead43360DeE2DC8aFa68f1575C0EbAfbAe7"}}],"identifier":[{"system":"https://gematik.de/fhir/erp-servicerequest/sid/RequestIdentifier","value":"fbe3a9c2-c776-43c1-932e-030a42b52482"},{"system":"https://gematik.de/fhir/erp-servicerequest/sid/ProcedureIdentifier","value":"b5e0292a-a91d-4ca4-92e2-3b8e9e6a42e5"}],"basedOn":[{"reference":"uuid:f6ca73cc-7127-4b33-b768-19bbb49bf30f"}],"requisition":{"system":"https://gematik.de/fhir/erp-servicerequest/sid/ProcedureIdentifier","value":"b5e0292a-a91d-4ca4-92e2-3b8e9e6a42e5"},"status":"active","intent":"filler-order","priority":"urgent","code":{"coding":[{"system":"https://gematik.de/fhir/erp-servicerequest/CodeSystem/service-request-type-cs","code":"dispense-request"}]},"subject":{"reference":"Patient/57e3698a-c135-43f9-a046-72515cef90d8"},"occurrenceDateTime":"2024-11-01T15:18:56.773064+01:00","authoredOn":"2024-11-01T15:18:56.773071+01:00","requester":{"reference":"Organization/273eefa4-6663-4a1f-937a-c9ed2004be2e"},"performer":[{"identifier":{"system":"http://gematik.de/fhir/sid/KIM-Adresse","value":"Test Apotheke"}}],"note":[{"time":"2024-11-01T15:18:56.773148+01:00","text":"Bitte wie üblich zur Abholung bereitlegen."}]}},{"fullUrl":"urn:uuid:57e3698a-c135-43f9-a046-72515cef90d8","resource":{"resourceType":"Patient","id":"57e3698a-c135-43f9-a046-72515cef90d8","meta":{"profile":["https://gematik.de/fhir/erp-servicerequest/StructureDefinition/erp-service-request-patient"]},"identifier":[{"system":"http://fhir.de/sid/gkv/kvid-10","value":"X234567890"}],"name":[{"use":"official","family":"Königsstein","_family":{"extension":[{"url":"http://hl7.org/fhir/StructureDefinition/humanname-own-name","valueString":"Königsstein"}]},"given":["Ludger"]}],"birthDate":"1935-06-22","address":[{"type":"both","line":["Musterstr. 1"],"_line":[{"extension":[{"url":"http://hl7.org/fhir/StructureDefinition/iso21090-ADXP-houseNumber","valueString":"1"},{"url":"http://hl7.org/fhir/StructureDefinition/iso21090-ADXP-streetName","valueString":"Musterstr."}]}],"city":"Berlin","postalCode":"10623"}]}},{"fullUrl":"urn:uuid:33861b24-404c-47f3-a976-a4c5c059893c","resource":{"resourceType":"Organization","id":"33861b24-404c-47f3-a976-a4c5c059893c","meta":{"profile":["https://gematik.de/fhir/erp-servicerequest/StructureDefinition/erp-service-request-organization"],"tag":[{"system":"https://gematik.de/fhir/directory/CodeSystem/Origin","code":"owner"}]},"identifier":[{"system":"https://gematik.de/fhir/sid/telematik-id","value":"1-031234567"}],"name":"Pflegeheim Immergrün","address":[{"type":"both","line":["Musterstr. 2"],"city":"Berlin","postalCode":"10623"}],"contact":[{"telecom":[{"system":"phone","value":"0301234567"},{"system":"email","value":"pflegeheim.immergrün.arzt@sana-pflegeheime.kim.telematik"}]}]}}]}