<?xml version='1.0' encoding='utf-8'?>
<Bundle xmlns="http://hl7.org/fhir"><id value="df3dbc76-f82c-4c72-989f-e427be22945d"/><meta><profile value="https://gematik.de/fhir/atf/StructureDefinition/bundle-app-transport-framework"/></meta><identifier><system value="urn:ietf:rfc:3986"/><value value="urn:uuid:df3dbc76-f82c-4c72-989f-e427be22945d"/></identifier><type value="message"/><timestamp value="2024-10-30T12:46:27.198815+00:00"/><entry><fullUrl value="urn:uuid:dc8fa976-e00f-4115-b9c0-d9f435b22b90"/><resource><MessageHeader><id value="dc8fa976-e00f-4115-b9c0-d9f435b22b90"/><meta><profile value="https://gematik.de/fhir/atf/StructureDefinition/message-header-app-transport"/></meta><eventCoding><system value="https://gematik.de/fhir/atf/CodeSystem/service-identifier-cs"/><code value="eRezept_Rezeptanforderung;Abgabebestaetigung"/><display value="Bestätigung der Erfüllung und Abgabe eines Medikamentes"/></eventCoding><destination><name value="Pflegeheim Immergrün"/><endpoint value="mailto:healthcare-service@test.kim.de"/></destination><sender><identifier><system value="http://gematik.de/fhir/sid/KIM-Adresse"/><value value="mailto:pharmacy@test.kim.de"/></identifier><display value="Test Apotheke"/></sender><source><name value="ApoSoft Gmbh"/><software value="ApoFlott"/><version value="1.1.3"/><contact><system value="email"/><value value="issues@apo-flott.de"/></contact><endpoint value="https://aposoft.de/issues"/></source><responsible><reference value="urn:uuid:7c0b19a3-0654-436b-8d8b-0d4b2b790870"/></responsible><focus><reference value="urn:uuid:43903732-6d46-4a50-a529-992de3818d44"/></focus></MessageHeader></resource></entry><entry><fullUrl value="urn:uuid:43903732-6d46-4a50-a529-992de3818d44"/><resource><ServiceRequest><id value="43903732-6d46-4a50-a529-992de3818d44"/><meta><profile value="https://gematik.de/fhir/erp-servicerequest/StructureDefinition/erp-service-request-dispense-request"/></meta><identifier><system value="https://gematik.de/fhir/erp-servicerequest/sid/RequestIdentifier"/><value value="3a0b434f-45b3-4859-a689-44da2a681851"/></identifier><identifier><system value="https://gematik.de/fhir/erp-servicerequest/sid/NamingSystemPreDisIdentifier"/><value value="e9a40715-e7c4-4792-8ff5-b35a4fad4b08"/></identifier><identifier><system value="https://gematik.de/fhir/erp-servicerequest/sid/ProcedureIdentifier"/><value value="43ddfb34-8f0d-4528-be48-425439262f3a"/></identifier><basedOn><reference value="urn:uuid:a2557af2-cd05-406e-9492-2fb74eabc9c1"/></basedOn><requisition><system value="https://gematik.de/fhir/erp-servicerequest/sid/ProcedureIdentifier"/><value value="43ddfb34-8f0d-4528-be48-425439262f3a"/></requisition><status value="completed"/><intent value="filler-order"/><code><coding><system value="https://gematik.de/fhir/erp-servicerequest/CodeSystem/service-request-type-cs"/><code value="dispense-request"/></coding></code><subject><reference value="urn:uuid:ef442bf2-5a2d-4b33-acf5-47d0eda37b10"/></subject><occurrenceDateTime value="2024-10-30T13:46:26.436143+01:00"/><authoredOn value="2024-10-30T13:46:26.436150+01:00"/><requester><reference value="urn:uuid:b6cbf08e-1a44-4087-8fa1-9ab1fea52be1"/></requester><performer><identifier><system value="http://gematik.de/fhir/sid/KIM-Adresse"/><value value="Test Apotheke"/></identifier></performer><note><text value="Bitte wie üblich zur Abholung bereitlegen."/></note></ServiceRequest></resource></entry><entry><fullUrl value="urn:uuid:43903732-6d46-4a50-a529-992de3818d44"/><resource><ServiceRequest><id value="43903732-6d46-4a50-a529-992de3818d44"/><meta><profile value="https://gematik.de/fhir/erp-servicerequest/StructureDefinition/erp-service-request-dispense-request"/></meta><identifier><system value="https://gematik.de/fhir/erp-servicerequest/sid/RequestIdentifier"/><value value="3a0b434f-45b3-4859-a689-44da2a681851"/></identifier><identifier><system value="https://gematik.de/fhir/erp-servicerequest/sid/NamingSystemPreDisIdentifier"/><value value="e9a40715-e7c4-4792-8ff5-b35a4fad4b08"/></identifier><identifier><system value="https://gematik.de/fhir/erp-servicerequest/sid/ProcedureIdentifier"/><value value="43ddfb34-8f0d-4528-be48-425439262f3a"/></identifier><basedOn><reference value="urn:uuid:a2557af2-cd05-406e-9492-2fb74eabc9c1"/></basedOn><requisition><system value="https://gematik.de/fhir/erp-servicerequest/sid/ProcedureIdentifier"/><value value="43ddfb34-8f0d-4528-be48-425439262f3a"/></requisition><status value="completed"/><intent value="filler-order"/><code><coding><system value="https://gematik.de/fhir/erp-servicerequest/CodeSystem/service-request-type-cs"/><code value="dispense-request"/></coding></code><subject><reference value="urn:uuid:ef442bf2-5a2d-4b33-acf5-47d0eda37b10"/></subject><occurrenceDateTime value="2024-10-30T13:46:26.436143+01:00"/><authoredOn value="2024-10-30T13:46:26.436150+01:00"/><requester><reference value="urn:uuid:b6cbf08e-1a44-4087-8fa1-9ab1fea52be1"/></requester><performer><identifier><system value="http://gematik.de/fhir/sid/KIM-Adresse"/><value value="Test Apotheke"/></identifier></performer><note><text value="Bitte wie üblich zur Abholung bereitlegen."/></note></ServiceRequest></resource></entry><entry><fullUrl value="urn:uuid:None"/><resource><Bundle><type value="transaction"/><entry><fullUrl value="http://erp-servicerequest-test.de/MedicationDispense/d3a19a79-2471-4783-8c66-90f5e7b251fd"/><resource><MedicationDispense><id value="d3a19a79-2471-4783-8c66-90f5e7b251fd"/><meta><profile value="https://gematik.de/fhir/erp/StructureDefinition/GEM_ERP_PR_MedicationDispense|1.2"/></meta><contained><Medication><id value="276d3d1b-fe9a-4f43-a372-28613f56374a"/><meta><profile value="https://fhir.kbv.de/StructureDefinition/KBV_PR_ERP_Medication_PZN|1.1.0"/></meta><code><coding><system value="http://fhir.de/CodeSystem/ifa/pzn"/><code value="08585997"/></coding><text value="Prospan® Hustensaft 100ml N1"/></code></Medication></contained><identifier><use value="official"/><system value="https://gematik.de/fhir/erp/NamingSystem/GEM_ERP_NS_PrescriptionId"/><value value="160.100.000.000.002.36"/></identifier><status value="completed"/><medicationReference><reference value="urn:uuid:#276d3d1b-fe9a-4f43-a372-28613f56374a"/></medicationReference><subject><reference value="urn:uuid:X123456789"/></subject><performer><actor><identifier><system value="https://gematik.de/fhir/sid/telematik-id"/><value value="12345678901234567890"/></identifier></actor></performer><whenHandedOver value="2020-04-16T13:44:27.957000+00:00"/><dosageInstruction><sequence value="1"/><text value="Eine Tablette täglich"/><timing><repeat><frequency value="1"/><period value="1.0"/><periodUnit value="d"/></repeat></timing><doseAndRate><type><coding><code value="ordered"/></coding></type><doseQuantity><value value="1.0"/><unit value="tablet"/></doseQuantity></doseAndRate></dosageInstruction></MedicationDispense></resource></entry></Bundle></resource></entry></Bundle>