<?xml version='1.0' encoding='utf-8'?>
<Bundle xmlns="http://hl7.org/fhir"><id value="60b158c3-2593-4e27-a6c2-f6484d6a8645"/><meta><profile value="https://gematik.de/fhir/atf/StructureDefinition/bundle-app-transport-framework"/></meta><identifier><system value="urn:ietf:rfc:3986"/><value value="urn:uuid:60b158c3-2593-4e27-a6c2-f6484d6a8645"/></identifier><type value="message"/><timestamp value="2024-10-22T14:54:31.739099+00:00"/><entry><fullUrl value="urn:uuid:1beedab5-c22a-494d-b72b-118d525c6aa6"/><resource><MessageHeader><id value="1beedab5-c22a-494d-b72b-118d525c6aa6"/><meta><profile value="https://gematik.de/fhir/atf/StructureDefinition/message-header-app-transport"/></meta><eventCoding><system value="https://gematik.de/fhir/atf/CodeSystem/service-identifier-cs"/><code value="eRezept_Rezeptanforderung;Rezeptanfrage"/><display value="Anfrage an einen Arzt ein Rezept auszustellen"/></eventCoding><destination><name value="Praxis Hans Topp-Glücklich"/><endpoint value="mailto:practitioner@test.kim.de"/></destination><sender><identifier><system value="http://gematik.de/fhir/sid/KIM-Adresse"/><value value="mailto:healthcare-service@test.kim.de"/></identifier><display value="Pflegeheim Immergrün"/></sender><source><name value="HealthCare-Source"/><software value="HealthCare-Software"/><version value="1.0.0"/><contact><system value="email"/><value value="info@hcs.email"/></contact><endpoint value="https://ps_solutions.com/jira_helpdesk"/></source><responsible><reference value="urn:uuid:14830932-0262-4c99-b395-9826c3b55f79"/></responsible><focus><reference value="urn:uuid:e4546fac-ce91-4a7a-8bca-1e3382c0f425"/></focus></MessageHeader></resource></entry><entry><fullUrl value="urn:uuid:e4546fac-ce91-4a7a-8bca-1e3382c0f425"/><resource><ServiceRequest><id value="e4546fac-ce91-4a7a-8bca-1e3382c0f425"/><meta><profile value="https://gematik.de/fhir/erp-servicerequest/StructureDefinition/erp-service-request-prescription-request"/></meta><identifier><system value="https://gematik.de/fhir/erp-servicerequest/sid/RequestIdentifier"/><value value="864722ae-225c-4f1b-80e3-5d610023fde5"/></identifier><identifier><system value="https://gematik.de/fhir/erp-servicerequest/sid/NamingSystemPreDisIdentifier"/><value value="ee87c2e6-0fc4-4587-a2f2-4abe020cc5bb"/></identifier><identifier><system value="https://gematik.de/fhir/erp-servicerequest/sid/ProcedureIdentifier"/><value value="68def2ff-de6f-4afb-b567-c4f9db1cf938"/></identifier><basedOn><reference value="urn:uuid:5b82e05f-ac9f-46b5-8176-fbf8a31cd6e1"/></basedOn><requisition><system value="https://gematik.de/fhir/erp-servicerequest/sid/ProcedureIdentifier"/><value value="68def2ff-de6f-4afb-b567-c4f9db1cf938"/></requisition><status value="active"/><intent value="order"/><code><coding><system value="https://gematik.de/fhir/erp-servicerequest/CodeSystem/service-request-type-cs"/><code value="prescription-request"/></coding></code><orderDetail><coding><system value="https://gematik.de/fhir/erp-servicerequest/CodeSystem/prescription-fullfillment-type-cs"/><code value="return-to-requester"/></coding></orderDetail><subject><reference value="urn:uuid:1173310a-8b44-40ad-8f15-480caa8d9370"/></subject><occurrenceDateTime value="2024-10-22T16:54:31.737618+02:00"/><authoredOn value="2024-10-22T16:54:31.737620+02:00"/><requester><reference value="urn:uuid:14830932-0262-4c99-b395-9826c3b55f79"/></requester><performer><identifier><system value="http://gematik.de/fhir/sid/KIM-Adresse"/><value value="practitioner@gluecklich.kim.telematik"/></identifier></performer><reasonCode><coding><system value="https://gematik.de/fhir/erp-servicerequest/CodeSystem/medication-request-reason-cs"/><code value="medication-runs-out"/></coding></reasonCode><reasonReference><reference value="urn:uuid:5b136249-c244-4835-bd25-391790554678"/></reasonReference><reasonReference><reference value="urn:uuid:0467064f-1123-45c1-87f1-b8e4932729f5"/></reasonReference><note><text value="Medikament läuft am 31.01.2025 aus. Es sind noch 7 stk übrig."/></note></ServiceRequest></resource></entry><entry><fullUrl value="urn:uuid:6fb3fa48-631b-4b9e-a401-a65d85fcb64a"/><resource><Medication><id value="6fb3fa48-631b-4b9e-a401-a65d85fcb64a"/><meta><profile value="https://fhir.kbv.de/StructureDefinition/KBV_PR_ERP_Medication_PZN|1.1.0"/></meta><extension url="https://fhir.kbv.de/StructureDefinition/KBV_EX_Base_Medication_Type"><valueCodeableConcept><coding><system value="http://snomed.info/sct"/><version value="http://snomed.info/sct/900000000000207008/version/20220331"/><code value="763158003"/><display value="Medicinal product (product)"/></coding></valueCodeableConcept></extension><extension url="https://fhir.kbv.de/StructureDefinition/KBV_EX_ERP_Medication_Category"><valueCoding><system value="https://fhir.kbv.de/CodeSystem/KBV_CS_ERP_Medication_Category"/><code value="00"/></valueCoding></extension><extension url="https://fhir.kbv.de/StructureDefinition/KBV_EX_ERP_Medication_Vaccine"><valueBoolean value="false"/></extension><extension url="http://fhir.de/StructureDefinition/normgroesse"><valueCode value="N1"/></extension><code><coding><system value="http://fhir.de/CodeSystem/ifa/pzn"/><code value="08585997"/></coding><text value="Prospan® Hustensaft 100ml"/></code><form><coding><system value="https://fhir.kbv.de/CodeSystem/KBV_CS_SFHIR_KBV_DARREICHUNGSFORM"/><code value="FLE"/></coding></form></Medication></resource></entry><entry><fullUrl value="urn:uuid:1173310a-8b44-40ad-8f15-480caa8d9370"/><resource><Patient><id value="1173310a-8b44-40ad-8f15-480caa8d9370"/><meta><profile value="https://fhir.kbv.de/StructureDefinition/KBV_PR_FOR_Patient|1.1.0"/></meta><identifier><type><coding><system value="http://fhir.de/CodeSystem/identifier-type-de-basis"/><code value="GKV"/></coding></type><system value="http://fhir.de/sid/gkv/kvid-10"/><value value="X234567890"/></identifier><name><use value="official"/><family value="Königsstein"><extension url="http://hl7.org/fhir/StructureDefinition/humanname-own-name"><valueString value="Königsstein"/></extension></family><given value="Ludger"/></name><birthDate value="1935-06-22"/><address><type value="both"/><line value="Musterstr. 1"><extension url="http://hl7.org/fhir/StructureDefinition/iso21090-ADXP-houseNumber"><valueString value="1"/></extension><extension url="http://hl7.org/fhir/StructureDefinition/iso21090-ADXP-streetName"><valueString value="Musterstr."/></extension></line><city value="Berlin"/><postalCode value="10623"/></address></Patient></resource></entry><entry><fullUrl value="urn:uuid:5b82e05f-ac9f-46b5-8176-fbf8a31cd6e1"/><resource><MedicationRequest><id value="5b82e05f-ac9f-46b5-8176-fbf8a31cd6e1"/><meta><profile value="https://gematik.de/fhir/erp-servicerequest/StructureDefinition/erp-service-request-medication-request"/></meta><extension url="https://gematik.de/fhir/erp-servicerequest/StructureDefinition/prescription-id-ex"><valueIdentifier><system value="https://gematik.de/fhir/erp/NamingSystem/GEM_ERP_NS_PrescriptionId"/><value value="160.100.000.000.001.36"/></valueIdentifier></extension><status value="active"/><intent value="order"/><medicationReference><reference value="urn:uuid:6fb3fa48-631b-4b9e-a401-a65d85fcb64a"/></medicationReference><subject><reference value="urn:uuid:1173310a-8b44-40ad-8f15-480caa8d9370"/></subject><authoredOn value="2024-10-22T16:54:31.736967+02:00"/><dosageInstruction><text value="2mal tägl. 5ml"/></dosageInstruction><dispenseRequest><quantity><value value="1.0"/><system value="http://unitsofmeasure.org"/><code value="{Package}"/></quantity></dispenseRequest></MedicationRequest></resource></entry><entry><fullUrl value="urn:uuid:14830932-0262-4c99-b395-9826c3b55f79"/><resource><Organization><id value="14830932-0262-4c99-b395-9826c3b55f79"/><meta><profile value="https://gematik.de/fhir/erp-servicerequest/StructureDefinition/erp-service-request-organization"/></meta><identifier><type><coding><system value="https://gematik.de/fhir/directory/CodeSystem/EndpointDirectoryConnectionType"/><code value="kim-2.0"/></coding></type><system value="http://gematik.de/fhir/sid/KIM-Adresse"/><value value="pflegeheim.immergrün.arzt@sana-pflegeheime.kim.telematik"/></identifier><identifier><type><coding><system value="http://terminology.hl7.org/CodeSystem/v2-0203"/><code value="PRN"/></coding></type><system value="https://gematik.de/fhir/sid/telematik-id"/><value value="1-031234567"/></identifier><identifier><type><coding><system value="http://terminology.hl7.org/CodeSystem/v2-0203"/><code value="BSNR"/></coding></type><system value="https://fhir.kbv.de/NamingSystem/KBV_NS_Base_BSNR"/><value value="031234567"/></identifier><name value="Pflegeheim Immergrün"/><telecom><system value="phone"/><value value="0301234567"/></telecom><address><type value="both"/><line value="Musterstr. 2"><extension url="http://hl7.org/fhir/StructureDefinition/iso21090-ADXP-houseNumber"><valueString value="2"/></extension><extension url="http://hl7.org/fhir/StructureDefinition/iso21090-ADXP-streetName"><valueString value="Musterstr."/></extension></line><city value="Berlin"/><postalCode value="10623"/></address></Organization></resource></entry><entry><fullUrl value="urn:uuid:5b136249-c244-4835-bd25-391790554678"/><resource><Observation><id value="5b136249-c244-4835-bd25-391790554678"/><meta><profile value="https://gematik.de/fhir/erp-servicerequest/StructureDefinition/erp-service-request-remaining-medication"/></meta><status value="final"/><code><coding><system value="https://gematik.de/fhir/erp-servicerequest/CodeSystem/medication-observation-cs"/><code value="range-of-medication"/></coding></code><subject><reference value="urn:uuid:1173310a-8b44-40ad-8f15-480caa8d9370"/></subject><valueDateTime value="2023-01-31"/></Observation></resource></entry><entry><fullUrl value="urn:uuid:0467064f-1123-45c1-87f1-b8e4932729f5"/><resource><Observation><id value="0467064f-1123-45c1-87f1-b8e4932729f5"/><meta><profile value="https://gematik.de/fhir/erp-servicerequest/StructureDefinition/erp-service-request-remaining-medication"/></meta><status value="final"/><code><coding><system value="https://gematik.de/fhir/erp-servicerequest/CodeSystem/medication-observation-cs"/><code value="range-of-medication"/></coding></code><subject><reference value="urn:uuid:1173310a-8b44-40ad-8f15-480caa8d9370"/></subject><valueQuantity><value value="7.0"/><unit value="stk"/></valueQuantity></Observation></resource></entry></Bundle>