<?xml version='1.0' encoding='utf-8'?>
<Bundle xmlns="http://hl7.org/fhir"><id value="f7a0f157-cd75-4bcd-9c08-d15100ae1e5e"/><meta><profile value="https://gematik.de/fhir/atf/StructureDefinition/bundle-app-transport-framework"/></meta><identifier><system value="urn:ietf:rfc:3986"/><value value="urn:uuid:f7a0f157-cd75-4bcd-9c08-d15100ae1e5e"/></identifier><type value="message"/><timestamp value="2024-10-22T14:54:32.756133+00:00"/><entry><fullUrl value="urn:uuid:7ee25bba-de58-47b0-a2e7-f243fb41446d"/><resource><MessageHeader><id value="7ee25bba-de58-47b0-a2e7-f243fb41446d"/><meta><profile value="https://gematik.de/fhir/atf/StructureDefinition/message-header-app-transport"/></meta><eventCoding><system value="https://gematik.de/fhir/atf/CodeSystem/service-identifier-cs"/><code value="eRezept_Rezeptanforderung;Rezeptbestaetigung"/><display value="Bestätigung und Übermittlung eines ausgestellten Rezeptes"/></eventCoding><destination><name value="Pflegeheim Immergrün"/><endpoint value="mailto:healthcare-service@test.kim.de"/></destination><sender><identifier><system value="http://gematik.de/fhir/sid/KIM-Adresse"/><value value="mailto:healthcare-service@test.kim.de"/></identifier><display value="Pflegeheim Immergrün"/></sender><source><name value="DeltaCare Inc."/><software value="PraxisFix"/><version value="1.3.2"/><contact><system value="email"/><value value="issues@praxisfix-deltacare.de"/></contact><endpoint value="https://deltacare.de/praxisfix/issues"/></source><responsible><reference value="urn:uuid:14830932-0262-4c99-b395-9826c3b55f79"/></responsible><focus><reference value="urn:uuid:e4546fac-ce91-4a7a-8bca-1e3382c0f425"/></focus></MessageHeader></resource></entry><entry><fullUrl value="urn:uuid:e4546fac-ce91-4a7a-8bca-1e3382c0f425"/><resource><ServiceRequest><id value="e4546fac-ce91-4a7a-8bca-1e3382c0f425"/><meta><profile value="https://gematik.de/fhir/erp-servicerequest/StructureDefinition/erp-service-request-prescription-request"/></meta><extension url="https://gematik.de/fhir/erp-servicerequest/StructureDefinition/eprescription-token-ex"><valueIdentifier><system value="https://gematik.de/fhir/erp/sid/NamingSystemEPrescriptionToken"/><value value="Task/160.750.128.992.318/$accept?ac=f1dEebE2a84E580d6f875a0AfcfBE6B2c28cDacfEE0Fc6A6E30E1794C9C428CD"/></valueIdentifier></extension><identifier><system value="https://gematik.de/fhir/erp-servicerequest/sid/RequestIdentifier"/><value value="864722ae-225c-4f1b-80e3-5d610023fde5"/></identifier><identifier><system value="https://gematik.de/fhir/erp-servicerequest/sid/NamingSystemPreDisIdentifier"/><value value="ee87c2e6-0fc4-4587-a2f2-4abe020cc5bb"/></identifier><identifier><system value="https://gematik.de/fhir/erp-servicerequest/sid/ProcedureIdentifier"/><value value="68def2ff-de6f-4afb-b567-c4f9db1cf938"/></identifier><basedOn><reference value="urn:uuid:e6125d5b-7285-4eb2-8109-d9a02dfddc69"/></basedOn><requisition><system value="https://gematik.de/fhir/erp-servicerequest/sid/ProcedureIdentifier"/><value value="68def2ff-de6f-4afb-b567-c4f9db1cf938"/></requisition><status value="completed"/><intent value="order"/><code><coding><system value="https://gematik.de/fhir/erp-servicerequest/CodeSystem/service-request-type-cs"/><code value="prescription-request"/></coding></code><orderDetail><coding><system value="https://gematik.de/fhir/erp-servicerequest/CodeSystem/prescription-fullfillment-type-cs"/><code value="return-to-requester"/></coding></orderDetail><subject><reference value="urn:uuid:1173310a-8b44-40ad-8f15-480caa8d9370"/></subject><occurrenceDateTime value="2024-10-22T16:54:31.737618+02:00"/><authoredOn value="2024-10-22T16:54:31.737620+02:00"/><requester><reference value="urn:uuid:14830932-0262-4c99-b395-9826c3b55f79"/></requester><performer><identifier><system value="http://gematik.de/fhir/sid/KIM-Adresse"/><value value="practitioner@gluecklich.kim.telematik"/></identifier></performer><reasonCode><coding><system value="https://gematik.de/fhir/erp-servicerequest/CodeSystem/medication-request-reason-cs"/><code value="medication-runs-out"/></coding></reasonCode><reasonReference><reference value="urn:uuid:5b136249-c244-4835-bd25-391790554678"/></reasonReference><reasonReference><reference value="urn:uuid:0467064f-1123-45c1-87f1-b8e4932729f5"/></reasonReference><note><text value="Medikament läuft am 31.01.2025 aus. Es sind noch 7 stk übrig."/></note></ServiceRequest></resource></entry><entry><fullUrl value="urn:uuid:e6125d5b-7285-4eb2-8109-d9a02dfddc69"/><resource><MedicationRequest><id value="e6125d5b-7285-4eb2-8109-d9a02dfddc69"/><meta><profile value="https://fhir.kbv.de/StructureDefinition/KBV_PR_ERP_Prescription|1.1.0"/></meta><extension url="https://fhir.kbv.de/StructureDefinition/KBV_EX_ERP_EmergencyServicesFee"><valueBoolean value="false"/></extension><status value="active"/><intent value="order"/><medicationReference><reference value="urn:uuid:6fb3fa48-631b-4b9e-a401-a65d85fcb64a"/></medicationReference><subject><reference value="urn:uuid:feacfd8b-4399-403f-9e60-2928528b265e"/></subject><authoredOn value="2024-10-22"/><requester><reference value="urn:uuid:9cc5cab8-3b8c-4e0e-9ed5-1834264d9a24"/></requester><insurance><reference value="urn:uuid:275bed21-5afa-40c2-8a10-2f226ab0793e"/></insurance><dosageInstruction><extension url="https://fhir.kbv.de/StructureDefinition/KBV_EX_ERP_DosageFlag"><valueBoolean value="true"/></extension><text value="2mal tägl. 5ml"/></dosageInstruction></MedicationRequest></resource></entry><entry><fullUrl value="urn:uuid:6fb3fa48-631b-4b9e-a401-a65d85fcb64a"/><resource><Medication><id value="6fb3fa48-631b-4b9e-a401-a65d85fcb64a"/><meta><profile value="https://fhir.kbv.de/StructureDefinition/KBV_PR_ERP_Medication_PZN|1.1.0"/></meta><extension url="https://fhir.kbv.de/StructureDefinition/KBV_EX_Base_Medication_Type"><valueCodeableConcept><coding><system value="http://snomed.info/sct"/><version value="http://snomed.info/sct/900000000000207008/version/20220331"/><code value="763158003"/><display value="Medicinal product (product)"/></coding></valueCodeableConcept></extension><extension url="https://fhir.kbv.de/StructureDefinition/KBV_EX_ERP_Medication_Category"><valueCoding><system value="https://fhir.kbv.de/CodeSystem/KBV_CS_ERP_Medication_Category"/><code value="00"/></valueCoding></extension><extension url="https://fhir.kbv.de/StructureDefinition/KBV_EX_ERP_Medication_Vaccine"><valueBoolean value="false"/></extension><extension url="http://fhir.de/StructureDefinition/normgroesse"><valueCode value="N1"/></extension><code><coding><system value="http://fhir.de/CodeSystem/ifa/pzn"/><code value="08585997"/></coding><text value="Prospan® Hustensaft 100ml"/></code><form><coding><system value="https://fhir.kbv.de/CodeSystem/KBV_CS_SFHIR_KBV_DARREICHUNGSFORM"/><code value="FLE"/></coding></form></Medication></resource></entry><entry><fullUrl value="urn:uuid:9cc5cab8-3b8c-4e0e-9ed5-1834264d9a24"/><resource><Practitioner><id value="9cc5cab8-3b8c-4e0e-9ed5-1834264d9a24"/><meta><profile value="https://fhir.kbv.de/StructureDefinition/KBV_PR_FOR_Practitioner|1.1.0"/></meta><identifier><type><coding><system value="http://terminology.hl7.org/CodeSystem/v2-0203"/><code value="LANR"/></coding></type><system value="https://fhir.kbv.de/NamingSystem/KBV_NS_Base_ANR"/><value value="838382202"/></identifier><identifier><type><coding><system value="http://terminology.hl7.org/CodeSystem/v2-0203"/><code value="PRN"/></coding></type><system value="https://gematik.de/fhir/sid/telematik-id"/><value value="1-838382202"/></identifier><name><use value="official"/><family value="Topp-Glücklich"><extension url="http://hl7.org/fhir/StructureDefinition/humanname-own-name"><valueString value="Topp-Glücklich"/></extension></family><given value="Hans"/><prefix value="Dr. med."/></name><qualification><code><coding><system value="https://fhir.kbv.de/CodeSystem/KBV_CS_FOR_Qualification_Type"/><code value="00"/></coding><text value="Arzt"/></code></qualification><qualification><code><coding><system value="https://fhir.kbv.de/CodeSystem/KBV_CS_FOR_Berufsbezeichnung"/><code value="Berufsbezeichnung"/></coding><text value="Hausarzt"/></code></qualification></Practitioner></resource></entry><entry><fullUrl value="urn:uuid:feacfd8b-4399-403f-9e60-2928528b265e"/><resource><Patient><id value="feacfd8b-4399-403f-9e60-2928528b265e"/><meta><profile value="https://fhir.kbv.de/StructureDefinition/KBV_PR_FOR_Patient|1.1.0"/></meta><identifier><type><coding><system value="http://fhir.de/CodeSystem/identifier-type-de-basis"/><code value="GKV"/></coding></type><system value="http://fhir.de/sid/gkv/kvid-10"/><value value="X234567890"/></identifier><name><use value="official"/><family value="Königsstein"><extension url="http://hl7.org/fhir/StructureDefinition/humanname-own-name"><valueString value="Königsstein"/></extension></family><given value="Ludger"/></name><birthDate value="1935-06-22"/><address><type value="both"/><line value="Musterstr. 1"><extension url="http://hl7.org/fhir/StructureDefinition/iso21090-ADXP-houseNumber"><valueString value="1"/></extension><extension url="http://hl7.org/fhir/StructureDefinition/iso21090-ADXP-streetName"><valueString value="Musterstr."/></extension></line><city value="Berlin"/><postalCode value="10623"/></address></Patient></resource></entry><entry><fullUrl value="urn:uuid:275bed21-5afa-40c2-8a10-2f226ab0793e"/><resource><Coverage><id value="275bed21-5afa-40c2-8a10-2f226ab0793e"/><meta><profile value="https://fhir.kbv.de/StructureDefinition/KBV_PR_FOR_Coverage|1.1.0"/></meta><extension url="http://fhir.de/StructureDefinition/gkv/besondere-personengruppe"><valueCoding><system value="https://fhir.kbv.de/CodeSystem/KBV_CS_SFHIR_KBV_PERSONENGRUPPE"/><code value="00"/></valueCoding></extension><extension url="http://fhir.de/StructureDefinition/gkv/dmp-kennzeichen"><valueCoding><system value="https://fhir.kbv.de/CodeSystem/KBV_CS_SFHIR_KBV_DMP"/><code value="00"/></valueCoding></extension><extension url="http://fhir.de/StructureDefinition/gkv/wop"><valueCoding><system value="https://fhir.kbv.de/CodeSystem/KBV_CS_SFHIR_ITA_WOP"/><code value="72"/></valueCoding></extension><extension url="http://fhir.de/StructureDefinition/gkv/versichertenart"><valueCoding><system value="https://fhir.kbv.de/CodeSystem/KBV_CS_SFHIR_KBV_VERSICHERTENSTATUS"/><code value="3"/></valueCoding></extension><status value="active"/><type><coding><system value="http://fhir.de/CodeSystem/versicherungsart-de-basis"/><code value="GKV"/></coding></type><beneficiary><reference value="urn:uuid:Patient/Example-Patient"/></beneficiary><period><end value="2040-04-01"/></period><payor><identifier><system value="http://fhir.de/sid/arge-ik/iknr"/><value value="108416214"/></identifier><display value="AOK Bayern Die Gesundh."/></payor></Coverage></resource></entry><entry><fullUrl value="urn:uuid:14830932-0262-4c99-b395-9826c3b55f79"/><resource><Organization><id value="14830932-0262-4c99-b395-9826c3b55f79"/><meta><profile value="https://gematik.de/fhir/erp-servicerequest/StructureDefinition/erp-service-request-organization"/></meta><identifier><type><coding><system value="https://gematik.de/fhir/directory/CodeSystem/EndpointDirectoryConnectionType"/><code value="kim-2.0"/></coding></type><system value="http://gematik.de/fhir/sid/KIM-Adresse"/><value value="pflegeheim.immergrün.arzt@sana-pflegeheime.kim.telematik"/></identifier><identifier><type><coding><system value="http://terminology.hl7.org/CodeSystem/v2-0203"/><code value="PRN"/></coding></type><system value="https://gematik.de/fhir/sid/telematik-id"/><value value="1-031234567"/></identifier><identifier><type><coding><system value="http://terminology.hl7.org/CodeSystem/v2-0203"/><code value="BSNR"/></coding></type><system value="https://fhir.kbv.de/NamingSystem/KBV_NS_Base_BSNR"/><value value="031234567"/></identifier><name value="Pflegeheim Immergrün"/><telecom><system value="phone"/><value value="0301234567"/></telecom><address><type value="both"/><line value="Musterstr. 2"><extension url="http://hl7.org/fhir/StructureDefinition/iso21090-ADXP-houseNumber"><valueString value="2"/></extension><extension url="http://hl7.org/fhir/StructureDefinition/iso21090-ADXP-streetName"><valueString value="Musterstr."/></extension></line><city value="Berlin"/><postalCode value="10623"/></address></Organization></resource></entry><entry><fullUrl value="urn:uuid:e4546fac-ce91-4a7a-8bca-1e3382c0f425"/><resource><ServiceRequest><id value="e4546fac-ce91-4a7a-8bca-1e3382c0f425"/><meta><profile value="https://gematik.de/fhir/erp-servicerequest/StructureDefinition/erp-service-request-prescription-request"/></meta><extension url="https://gematik.de/fhir/erp-servicerequest/StructureDefinition/eprescription-token-ex"><valueIdentifier><system value="https://gematik.de/fhir/erp/sid/NamingSystemEPrescriptionToken"/><value value="Task/160.750.128.992.318/$accept?ac=f1dEebE2a84E580d6f875a0AfcfBE6B2c28cDacfEE0Fc6A6E30E1794C9C428CD"/></valueIdentifier></extension><identifier><system value="https://gematik.de/fhir/erp-servicerequest/sid/RequestIdentifier"/><value value="864722ae-225c-4f1b-80e3-5d610023fde5"/></identifier><identifier><system value="https://gematik.de/fhir/erp-servicerequest/sid/NamingSystemPreDisIdentifier"/><value value="ee87c2e6-0fc4-4587-a2f2-4abe020cc5bb"/></identifier><identifier><system value="https://gematik.de/fhir/erp-servicerequest/sid/ProcedureIdentifier"/><value value="68def2ff-de6f-4afb-b567-c4f9db1cf938"/></identifier><basedOn><reference value="urn:uuid:e6125d5b-7285-4eb2-8109-d9a02dfddc69"/></basedOn><requisition><system value="https://gematik.de/fhir/erp-servicerequest/sid/ProcedureIdentifier"/><value value="68def2ff-de6f-4afb-b567-c4f9db1cf938"/></requisition><status value="completed"/><intent value="order"/><code><coding><system value="https://gematik.de/fhir/erp-servicerequest/CodeSystem/service-request-type-cs"/><code value="prescription-request"/></coding></code><orderDetail><coding><system value="https://gematik.de/fhir/erp-servicerequest/CodeSystem/prescription-fullfillment-type-cs"/><code value="return-to-requester"/></coding></orderDetail><subject><reference value="urn:uuid:1173310a-8b44-40ad-8f15-480caa8d9370"/></subject><occurrenceDateTime value="2024-10-22T16:54:31.737618+02:00"/><authoredOn value="2024-10-22T16:54:31.737620+02:00"/><requester><reference value="urn:uuid:14830932-0262-4c99-b395-9826c3b55f79"/></requester><performer><identifier><system value="http://gematik.de/fhir/sid/KIM-Adresse"/><value value="practitioner@gluecklich.kim.telematik"/></identifier></performer><reasonCode><coding><system value="https://gematik.de/fhir/erp-servicerequest/CodeSystem/medication-request-reason-cs"/><code value="medication-runs-out"/></coding></reasonCode><reasonReference><reference value="urn:uuid:5b136249-c244-4835-bd25-391790554678"/></reasonReference><reasonReference><reference value="urn:uuid:0467064f-1123-45c1-87f1-b8e4932729f5"/></reasonReference><note><text value="Medikament läuft am 31.01.2025 aus. Es sind noch 7 stk übrig."/></note></ServiceRequest></resource></entry></Bundle>