<?xml version='1.0' encoding='utf-8'?>
<Bundle xmlns="http://hl7.org/fhir"><id value="6f4d83a6-143e-4c7a-acd1-b2ce96fcfcc4"/><meta><profile value="https://gematik.de/fhir/erp-servicerequest/StructureDefinition/erp-service-request-message-container"/></meta><identifier><system value="urn:ietf:rfc:3986"/><value value="urn:uuid:6f4d83a6-143e-4c7a-acd1-b2ce96fcfcc4"/></identifier><type value="message"/><timestamp value="2024-11-01T14:40:54.892241+00:00"/><entry><fullUrl value="urn:uuid:fc0f63e4-20ef-40b0-bddc-9eb68fb9d7a0"/><resource><MessageHeader><id value="fc0f63e4-20ef-40b0-bddc-9eb68fb9d7a0"/><meta><profile value="https://gematik.de/fhir/erp-servicerequest/StructureDefinition/erp-service-request-request-header"/></meta><eventCoding><system value="https://gematik.de/fhir/atf/CodeSystem/service-identifier-cs"/><code value="eRezept_Rezeptanforderung;Abgabeanfrage"/><display value="Anfrage zur Erfüllung eines Rezeptes und Abgabe des Medikaments"/></eventCoding><destination><name value="Test Apotheke"/><endpoint value="5-test-telematik-id-apotheke"/></destination><sender><identifier><system value="https://gematik.de/fhir/sid/telematik-id"/><value value="5-test-telematik-id-pflegeinrichtung"/></identifier><display value="Pflegeheim Immergrün"/></sender><source><name value="HealthCare-Source"/><software value="HealthCare-Software"/><version value="1.0.0"/><contact><system value="email"/><value value="info@hcs.email"/></contact><endpoint value="mailto:healthcare-service@test.kim.de"/></source><responsible><reference value="urn:uuid:ac61d83a-96d2-4042-b5dd-f5aefa8c5b34"/></responsible><focus><reference value="urn:uuid:a7ea0f41-2f00-442c-a5c8-25d61185109a"/></focus></MessageHeader></resource></entry><entry><fullUrl value="urn:uuid:a7ea0f41-2f00-442c-a5c8-25d61185109a"/><resource><ServiceRequest><id value="a7ea0f41-2f00-442c-a5c8-25d61185109a"/><meta><profile value="https://gematik.de/fhir/erp-servicerequest/StructureDefinition/erp-service-request-dispense-request"/></meta><extension url="https://gematik.de/fhir/erp-servicerequest/StructureDefinition/eprescription-token-ex"><valueIdentifier><system value="https://gematik.de/fhir/erp/sid/NamingSystemEPrescriptionToken"/><value value="Task/160.617.289.440.793/$accept?ac=BBA5beFdB59BDb65BfFdD4322a5EDf78D84Fcc4a99afa99DDb6ABBCdDDdf2FD5"/></valueIdentifier></extension><identifier><system value="https://gematik.de/fhir/erp-servicerequest/sid/RequestIdentifier"/><value value="8ddc6c37-cddb-496d-a526-bb1e67b1c87e"/></identifier><identifier><system value="https://gematik.de/fhir/erp-servicerequest/sid/ProcedureIdentifier"/><value value="6293e0d2-0ebb-4694-8c3d-28c764eed685"/></identifier><basedOn><reference value="uuid:3af51d77-2ecc-466f-b8d7-af2173309afb"/></basedOn><requisition><system value="https://gematik.de/fhir/erp-servicerequest/sid/ProcedureIdentifier"/><value value="6293e0d2-0ebb-4694-8c3d-28c764eed685"/></requisition><status value="active"/><intent value="filler-order"/><priority value="urgent"/><code><coding><system value="https://gematik.de/fhir/erp-servicerequest/CodeSystem/service-request-type-cs"/><code value="dispense-request"/></coding></code><subject><reference value="Patient/de7cb9d9-dfbf-46b9-992d-059ca262398f"/></subject><occurrenceDateTime value="2024-11-01T15:40:54.891924+01:00"/><authoredOn value="2024-11-01T15:40:54.891932+01:00"/><requester><reference value="Organization/13cbe426-b7fe-4280-94e2-efb3038682c0"/></requester><performer><identifier><system value="http://gematik.de/fhir/sid/KIM-Adresse"/><value value="Test Apotheke"/></identifier></performer><note><time value="2024-11-01T15:40:54.892011+01:00"/><text value="Bitte wie üblich zur Abholung bereitlegen."/></note></ServiceRequest></resource></entry><entry><fullUrl value="urn:uuid:de7cb9d9-dfbf-46b9-992d-059ca262398f"/><resource><Patient><id value="de7cb9d9-dfbf-46b9-992d-059ca262398f"/><meta><profile value="https://gematik.de/fhir/erp-servicerequest/StructureDefinition/erp-service-request-patient"/></meta><identifier><system value="http://fhir.de/sid/gkv/kvid-10"/><value value="X234567890"/></identifier><name><use value="official"/><family value="Königsstein"><extension url="http://hl7.org/fhir/StructureDefinition/humanname-own-name"><valueString value="Königsstein"/></extension></family><given value="Ludger"/></name><birthDate value="1935-06-22"/><address><type value="both"/><line value="Musterstr. 1"><extension url="http://hl7.org/fhir/StructureDefinition/iso21090-ADXP-houseNumber"><valueString value="1"/></extension><extension url="http://hl7.org/fhir/StructureDefinition/iso21090-ADXP-streetName"><valueString value="Musterstr."/></extension></line><city value="Berlin"/><postalCode value="10623"/></address></Patient></resource></entry><entry><fullUrl value="urn:uuid:ac61d83a-96d2-4042-b5dd-f5aefa8c5b34"/><resource><Organization><id value="ac61d83a-96d2-4042-b5dd-f5aefa8c5b34"/><meta><profile value="https://gematik.de/fhir/erp-servicerequest/StructureDefinition/erp-service-request-organization"/><tag><system value="https://gematik.de/fhir/directory/CodeSystem/Origin"/><code value="owner"/></tag></meta><identifier><system value="https://gematik.de/fhir/sid/telematik-id"/><value value="1-031234567"/></identifier><name value="Pflegeheim Immergrün"/><address><type value="both"/><line value="Musterstr. 2"/><city value="Berlin"/><postalCode value="10623"/></address><contact><telecom><system value="phone"/><value value="0301234567"/></telecom><telecom><system value="email"/><value value="pflegeheim.immergrün.arzt@sana-pflegeheime.kim.telematik"/></telecom></contact></Organization></resource></entry></Bundle>