{"resourceType":"Bundle","id":"eee599a2-67e5-4f7d-bb95-ea50e9546a8f","meta":{"profile":["https://gematik.de/fhir/erp-servicerequest/StructureDefinition/erp-service-request-message-container"]},"identifier":{"system":"urn:ietf:rfc:3986","value":"urn:uuid:eee599a2-67e5-4f7d-bb95-ea50e9546a8f"},"type":"message","timestamp":"2024-10-30T14:38:33.454539+00:00","entry":[{"fullUrl":"urn:uuid:aea981e2-f3c4-4c00-adea-3722f6f3d87b","resource":{"resourceType":"MessageHeader","id":"aea981e2-f3c4-4c00-adea-3722f6f3d87b","meta":{"profile":["https://gematik.de/fhir/erp-servicerequest/StructureDefinition/erp-service-request-request-header"]},"eventCoding":{"system":"https://gematik.de/fhir/atf/CodeSystem/service-identifier-cs","code":"eRezept_Rezeptanforderung;Abgabebestaetigung","display":"Bestätigung der Erfüllung und Abgabe eines Medikamentes"},"destination":[{"name":"Pflegeheim Immergrün","endpoint":"5-test-telematik-id-pflegeinrichtung"}],"sender":{"identifier":{"system":"https://gematik.de/fhir/sid/telematik-id","value":"5-test-telematik-id-apotheke"},"display":"Test Apotheke"},"source":{"name":"ApoSoft Gmbh","software":"ApoFlott","version":"1.1.3","contact":{"system":"email","value":"issues@apo-flott.de"},"endpoint":"https://aposoft.de/issues"},"responsible":{"reference":"urn:uuid:91ceae5f-4dc1-4c84-821e-fd4f9de889b2"},"focus":[{"reference":"urn:uuid:50001bc4-70cf-4c69-8b06-5757984e2e95"}]}},{"fullUrl":"urn:uuid:50001bc4-70cf-4c69-8b06-5757984e2e95","resource":{"resourceType":"ServiceRequest","id":"50001bc4-70cf-4c69-8b06-5757984e2e95","meta":{"profile":["https://gematik.de/fhir/erp-servicerequest/StructureDefinition/erp-service-request-dispense-request"]},"identifier":[{"system":"https://gematik.de/fhir/erp-servicerequest/sid/RequestIdentifier","value":"a6dabbb7-be81-4c55-add9-aa30f070d199"},{"system":"https://gematik.de/fhir/erp-servicerequest/sid/ProcedureIdentifier","value":"99124356-d833-4d93-96ae-b0e578458c45"}],"basedOn":[{"reference":"urn:uuid:c0146e6a-8aad-49ec-bd60-eb1664a30986"}],"requisition":{"system":"https://gematik.de/fhir/erp-servicerequest/sid/ProcedureIdentifier","value":"99124356-d833-4d93-96ae-b0e578458c45"},"status":"completed","intent":"filler-order","code":{"coding":[{"system":"https://gematik.de/fhir/erp-servicerequest/CodeSystem/service-request-type-cs","code":"dispense-request"}]},"subject":{"reference":"urn:uuid:f91add65-c7a5-4010-8d11-993f7a8a0d33"},"occurrenceDateTime":"2024-10-30T15:38:32.643496+01:00","authoredOn":"2024-10-30T15:38:32.643508+01:00","requester":{"reference":"urn:uuid:7d96144f-c5bf-40b8-9272-fcb3fa5ce3c2"},"performer":[{"identifier":{"system":"http://gematik.de/fhir/sid/KIM-Adresse","value":"Test Apotheke"}}],"note":[{"text":"Bitte wie üblich zur Abholung bereitlegen."}]}},{"fullUrl":"urn:uuid:50001bc4-70cf-4c69-8b06-5757984e2e95","resource":{"resourceType":"ServiceRequest","id":"50001bc4-70cf-4c69-8b06-5757984e2e95","meta":{"profile":["https://gematik.de/fhir/erp-servicerequest/StructureDefinition/erp-service-request-dispense-request"]},"identifier":[{"system":"https://gematik.de/fhir/erp-servicerequest/sid/RequestIdentifier","value":"a6dabbb7-be81-4c55-add9-aa30f070d199"},{"system":"https://gematik.de/fhir/erp-servicerequest/sid/ProcedureIdentifier","value":"99124356-d833-4d93-96ae-b0e578458c45"}],"basedOn":[{"reference":"urn:uuid:c0146e6a-8aad-49ec-bd60-eb1664a30986"}],"requisition":{"system":"https://gematik.de/fhir/erp-servicerequest/sid/ProcedureIdentifier","value":"99124356-d833-4d93-96ae-b0e578458c45"},"status":"completed","intent":"filler-order","code":{"coding":[{"system":"https://gematik.de/fhir/erp-servicerequest/CodeSystem/service-request-type-cs","code":"dispense-request"}]},"subject":{"reference":"urn:uuid:f91add65-c7a5-4010-8d11-993f7a8a0d33"},"occurrenceDateTime":"2024-10-30T15:38:32.643496+01:00","authoredOn":"2024-10-30T15:38:32.643508+01:00","requester":{"reference":"urn:uuid:7d96144f-c5bf-40b8-9272-fcb3fa5ce3c2"},"performer":[{"identifier":{"system":"http://gematik.de/fhir/sid/KIM-Adresse","value":"Test Apotheke"}}],"note":[{"text":"Bitte wie üblich zur Abholung bereitlegen."}]}},{"fullUrl":"urn:uuid:None","resource":{"resourceType":"Bundle","type":"transaction","entry":[{"fullUrl":"http://erp-servicerequest-test.de/MedicationDispense/3dee8ed3-183b-4633-a689-7b9d1855a896","resource":{"resourceType":"MedicationDispense","id":"3dee8ed3-183b-4633-a689-7b9d1855a896","meta":{"profile":["https://gematik.de/fhir/erp/StructureDefinition/GEM_ERP_PR_MedicationDispense|1.2"]},"contained":[{"resourceType":"Medication","id":"bb3c75ec-644c-4513-bbb4-aef1658d2caa","meta":{"profile":["https://fhir.kbv.de/StructureDefinition/KBV_PR_ERP_Medication_PZN|1.1.0"]},"code":{"coding":[{"system":"http://fhir.de/CodeSystem/ifa/pzn","code":"08585997"}],"text":"Prospan® Hustensaft 100ml N1"}}],"identifier":[{"use":"official","system":"https://gematik.de/fhir/erp/NamingSystem/GEM_ERP_NS_PrescriptionId","value":"160.100.000.000.002.36"}],"status":"completed","medicationReference":{"reference":"urn:uuid:#bb3c75ec-644c-4513-bbb4-aef1658d2caa"},"subject":{"reference":"urn:uuid:X123456789"},"performer":[{"actor":{"identifier":{"system":"https://gematik.de/fhir/sid/telematik-id","value":"12345678901234567890"}}}],"whenHandedOver":"2020-04-16T13:44:27.957000+00:00","dosageInstruction":[{"sequence":1,"text":"Eine Tablette täglich","timing":{"repeat":{"frequency":1,"period":1,"periodUnit":"d"}},"doseAndRate":[{"type":{"coding":[{"code":"ordered"}]},"doseQuantity":{"value":1,"unit":"tablet"}}]}]}}]}}]}