<?xml version='1.0' encoding='utf-8'?>
<Bundle xmlns="http://hl7.org/fhir"><id value="c7147123-5c66-4cf2-be9b-7bc9b9871e2b"/><meta><profile value="https://gematik.de/fhir/erp-servicerequest/StructureDefinition/erp-service-request-message-container"/></meta><identifier><system value="urn:ietf:rfc:3986"/><value value="urn:uuid:c7147123-5c66-4cf2-be9b-7bc9b9871e2b"/></identifier><type value="message"/><timestamp value="2024-11-01T14:18:55.500777+00:00"/><entry><fullUrl value="urn:uuid:a5bec97c-d355-4ed8-8145-068cf9f9637f"/><resource><MessageHeader><id value="a5bec97c-d355-4ed8-8145-068cf9f9637f"/><meta><profile value="https://gematik.de/fhir/erp-servicerequest/StructureDefinition/erp-service-request-request-header"/></meta><eventCoding><system value="https://gematik.de/fhir/atf/CodeSystem/service-identifier-cs"/><code value="eRezept_Rezeptanforderung;Rezeptbestaetigung"/><display value="Bestätigung und Übermittlung eines ausgestellten Rezeptes"/></eventCoding><destination><name value="Pflegeheim Immergrün"/><endpoint value="5-test-telematik-id-pflegeinrichtung"/></destination><sender><identifier><system value="https://gematik.de/fhir/sid/telematik-id"/><value value="5-test-telematik-id-praxis"/></identifier><display value="Praxis Hans Topp-Glücklich"/></sender><source><name value="DeltaCare Inc."/><software value="PraxisFix"/><version value="1.3.2"/><contact><system value="email"/><value value="issues@praxisfix-deltacare.de"/></contact><endpoint value="https://deltacare.de/praxisfix/issues"/></source><responsible><reference value="urn:uuid:273eefa4-6663-4a1f-937a-c9ed2004be2e"/></responsible><focus><reference value="urn:uuid:b5e0292a-a91d-4ca4-92e2-3b8e9e6a42e5"/></focus></MessageHeader></resource></entry><entry><fullUrl value="urn:uuid:b5e0292a-a91d-4ca4-92e2-3b8e9e6a42e5"/><resource><ServiceRequest><id value="b5e0292a-a91d-4ca4-92e2-3b8e9e6a42e5"/><meta><profile value="https://gematik.de/fhir/erp-servicerequest/StructureDefinition/erp-service-request-prescription-request"/></meta><extension url="https://gematik.de/fhir/erp-servicerequest/StructureDefinition/eprescription-token-ex"><valueIdentifier><system value="https://gematik.de/fhir/erp/sid/NamingSystemEPrescriptionToken"/><value value="Task/160.819.358.313.793/$accept?ac=10bEcd8ACcC14f150c8cfAA7C6729Ead43360DeE2DC8aFa68f1575C0EbAfbAe7"/></valueIdentifier></extension><identifier><system value="https://gematik.de/fhir/erp-servicerequest/sid/RequestIdentifier"/><value value="fbe3a9c2-c776-43c1-932e-030a42b52482"/></identifier><identifier><system value="https://gematik.de/fhir/erp-servicerequest/sid/ProcedureIdentifier"/><value value="961ebc16-7b4f-4bb7-946f-359ec19f0ced"/></identifier><basedOn><reference value="urn:uuid:f6ca73cc-7127-4b33-b768-19bbb49bf30f"/></basedOn><requisition><system value="https://gematik.de/fhir/erp-servicerequest/sid/ProcedureIdentifier"/><value value="961ebc16-7b4f-4bb7-946f-359ec19f0ced"/></requisition><status value="completed"/><intent value="order"/><priority value="urgent"/><code><coding><system value="https://gematik.de/fhir/erp-servicerequest/CodeSystem/service-request-type-cs"/><code value="prescription-request"/></coding></code><orderDetail><coding><system value="https://gematik.de/fhir/erp-servicerequest/CodeSystem/prescription-fullfillment-type-cs"/><code value="return-to-requester"/></coding></orderDetail><subject><reference value="Patient/e35cf417-f3e6-414d-a5c2-564fadbad1e9"/></subject><occurrenceDateTime value="2024-11-01T15:18:54.242993+01:00"/><authoredOn value="2024-11-01T15:18:54.242995+01:00"/><requester><reference value="Organization/273eefa4-6663-4a1f-937a-c9ed2004be2e"/></requester><performer><identifier><system value="http://gematik.de/fhir/sid/KIM-Adresse"/><value value="practitioner@gluecklich.kim.telematik"/></identifier></performer><reasonCode><extension url="https://gematik.de/fhir/erp-servicerequest/StructureDefinition/remaining-supply-ex"><valueQuantity><value value="7.0"/><unit value="Stück"/></valueQuantity></extension><coding><system value="https://gematik.de/fhir/erp-servicerequest/CodeSystem/medication-request-reason-cs"/><code value="exhausted-range"/></coding><text value="Medikament läuft am 31.01.2025 aus. Es sind noch 7 stk übrig."/></reasonCode><reasonReference><reference value="uuid:304e9cff-5077-4af9-847d-c39ab1ee53da"/></reasonReference><reasonReference><reference value="uuid:a034e856-ff47-40fd-86cb-1a9bfb2c899b"/></reasonReference><note><time value="2024-11-01T15:18:54.243166+01:00"/><text value="Wird weiterhin benötigt, bitte um Verlängerung."/></note></ServiceRequest></resource></entry><entry><fullUrl value="urn:uuid:f6ca73cc-7127-4b33-b768-19bbb49bf30f"/><resource><MedicationRequest><id value="f6ca73cc-7127-4b33-b768-19bbb49bf30f"/><meta><profile value="https://fhir.kbv.de/StructureDefinition/KBV_PR_ERP_Prescription|1.1.0"/></meta><extension url="https://fhir.kbv.de/StructureDefinition/KBV_EX_ERP_EmergencyServicesFee"><valueBoolean value="false"/></extension><status value="active"/><intent value="order"/><medicationReference><reference value="urn:uuid:0dd9f382-d313-451b-ac7b-375e9bb3b50a"/></medicationReference><subject><reference value="urn:uuid:e35cf417-f3e6-414d-a5c2-564fadbad1e9"/></subject><authoredOn value="2024-11-01"/><requester><reference value="urn:uuid:d7b94663-d43a-4207-884b-fc28c51f9789"/></requester><insurance><reference value="urn:uuid:31c1df99-512a-4f2f-bc9a-c3c3ae82b8fc"/></insurance><dosageInstruction><extension url="https://fhir.kbv.de/StructureDefinition/KBV_EX_ERP_DosageFlag"><valueBoolean value="true"/></extension><text value="2mal tägl. 5ml"/></dosageInstruction></MedicationRequest></resource></entry><entry><fullUrl value="urn:uuid:0dd9f382-d313-451b-ac7b-375e9bb3b50a"/><resource><Medication><id value="0dd9f382-d313-451b-ac7b-375e9bb3b50a"/><meta><profile value="https://fhir.kbv.de/StructureDefinition/KBV_PR_ERP_Medication_PZN|1.1.0"/></meta><extension url="https://fhir.kbv.de/StructureDefinition/KBV_EX_Base_Medication_Type"><valueCodeableConcept><coding><system value="http://snomed.info/sct"/><version value="http://snomed.info/sct/900000000000207008/version/20220331"/><code value="763158003"/><display value="Medicinal product (product)"/></coding></valueCodeableConcept></extension><extension url="https://fhir.kbv.de/StructureDefinition/KBV_EX_ERP_Medication_Category"><valueCoding><system value="https://fhir.kbv.de/CodeSystem/KBV_CS_ERP_Medication_Category"/><code value="00"/></valueCoding></extension><extension url="https://fhir.kbv.de/StructureDefinition/KBV_EX_ERP_Medication_Vaccine"><valueBoolean value="false"/></extension><extension url="http://fhir.de/StructureDefinition/normgroesse"><valueCode value="N1"/></extension><code><coding><system value="http://fhir.de/CodeSystem/ifa/pzn"/><code value="08585997"/></coding><text value="Prospan® Hustensaft 100ml"/></code><form><coding><system value="https://fhir.kbv.de/CodeSystem/KBV_CS_SFHIR_KBV_DARREICHUNGSFORM"/><code value="FLE"/></coding></form></Medication></resource></entry><entry><fullUrl value="urn:uuid:d7b94663-d43a-4207-884b-fc28c51f9789"/><resource><Practitioner><id value="d7b94663-d43a-4207-884b-fc28c51f9789"/><meta><profile value="https://fhir.kbv.de/StructureDefinition/KBV_PR_FOR_Practitioner|1.1.0"/></meta><identifier><type><coding><system value="http://terminology.hl7.org/CodeSystem/v2-0203"/><code value="LANR"/></coding></type><system value="https://fhir.kbv.de/NamingSystem/KBV_NS_Base_ANR"/><value value="838382202"/></identifier><identifier><type><coding><system value="http://terminology.hl7.org/CodeSystem/v2-0203"/><code value="PRN"/></coding></type><system value="https://gematik.de/fhir/sid/telematik-id"/><value value="1-838382202"/></identifier><name><use value="official"/><family value="Topp-Glücklich"><extension url="http://hl7.org/fhir/StructureDefinition/humanname-own-name"><valueString value="Topp-Glücklich"/></extension></family><given value="Hans"/><prefix value="Dr. med."/></name><qualification><code><coding><system value="https://fhir.kbv.de/CodeSystem/KBV_CS_FOR_Qualification_Type"/><code value="00"/></coding><text value="Arzt"/></code></qualification><qualification><code><coding><system value="https://fhir.kbv.de/CodeSystem/KBV_CS_FOR_Berufsbezeichnung"/><code value="Berufsbezeichnung"/></coding><text value="Hausarzt"/></code></qualification></Practitioner></resource></entry><entry><fullUrl value="urn:uuid:e35cf417-f3e6-414d-a5c2-564fadbad1e9"/><resource><Patient><id value="e35cf417-f3e6-414d-a5c2-564fadbad1e9"/><meta><profile value="https://gematik.de/fhir/erp-servicerequest/StructureDefinition/erp-service-request-patient"/></meta><identifier><system value="http://fhir.de/sid/gkv/kvid-10"/><value value="X234567890"/></identifier><name><use value="official"/><family value="Königsstein"><extension url="http://hl7.org/fhir/StructureDefinition/humanname-own-name"><valueString value="Königsstein"/></extension></family><given value="Ludger"/></name><birthDate value="1935-06-22"/><address><type value="both"/><line value="Musterstr. 1"><extension url="http://hl7.org/fhir/StructureDefinition/iso21090-ADXP-houseNumber"><valueString value="1"/></extension><extension url="http://hl7.org/fhir/StructureDefinition/iso21090-ADXP-streetName"><valueString value="Musterstr."/></extension></line><city value="Berlin"/><postalCode value="10623"/></address></Patient></resource></entry><entry><fullUrl value="urn:uuid:31c1df99-512a-4f2f-bc9a-c3c3ae82b8fc"/><resource><Coverage><id value="31c1df99-512a-4f2f-bc9a-c3c3ae82b8fc"/><meta><profile value="https://fhir.kbv.de/StructureDefinition/KBV_PR_FOR_Coverage|1.1.0"/></meta><extension url="http://fhir.de/StructureDefinition/gkv/besondere-personengruppe"><valueCoding><system value="https://fhir.kbv.de/CodeSystem/KBV_CS_SFHIR_KBV_PERSONENGRUPPE"/><code value="00"/></valueCoding></extension><extension url="http://fhir.de/StructureDefinition/gkv/dmp-kennzeichen"><valueCoding><system value="https://fhir.kbv.de/CodeSystem/KBV_CS_SFHIR_KBV_DMP"/><code value="00"/></valueCoding></extension><extension url="http://fhir.de/StructureDefinition/gkv/wop"><valueCoding><system value="https://fhir.kbv.de/CodeSystem/KBV_CS_SFHIR_ITA_WOP"/><code value="72"/></valueCoding></extension><extension url="http://fhir.de/StructureDefinition/gkv/versichertenart"><valueCoding><system value="https://fhir.kbv.de/CodeSystem/KBV_CS_SFHIR_KBV_VERSICHERTENSTATUS"/><code value="3"/></valueCoding></extension><status value="active"/><type><coding><system value="http://fhir.de/CodeSystem/versicherungsart-de-basis"/><code value="GKV"/></coding></type><beneficiary><reference value="urn:uuid:Patient/Example-Patient"/></beneficiary><period><end value="2040-04-01"/></period><payor><identifier><system value="http://fhir.de/sid/arge-ik/iknr"/><value value="108416214"/></identifier><display value="AOK Bayern Die Gesundh."/></payor></Coverage></resource></entry><entry><fullUrl value="urn:uuid:273eefa4-6663-4a1f-937a-c9ed2004be2e"/><resource><Organization><id value="273eefa4-6663-4a1f-937a-c9ed2004be2e"/><meta><profile value="https://gematik.de/fhir/erp-servicerequest/StructureDefinition/erp-service-request-organization"/><tag><system value="https://gematik.de/fhir/directory/CodeSystem/Origin"/><code value="owner"/></tag></meta><identifier><system value="https://gematik.de/fhir/sid/telematik-id"/><value value="1-031234567"/></identifier><name value="Pflegeheim Immergrün"/><address><type value="both"/><line value="Musterstr. 2"/><city value="Berlin"/><postalCode value="10623"/></address><contact><telecom><system value="phone"/><value value="0301234567"/></telecom><telecom><system value="email"/><value value="pflegeheim.immergrün.arzt@sana-pflegeheime.kim.telematik"/></telecom></contact></Organization></resource></entry></Bundle>