{"resourceType":"Bundle","id":"916c1e1e-05d2-416f-a2e3-fcbc20c8357e","meta":{"profile":["https://gematik.de/fhir/erp-servicerequest/StructureDefinition/erp-service-request-message-container"]},"identifier":{"system":"urn:ietf:rfc:3986","value":"urn:uuid:916c1e1e-05d2-416f-a2e3-fcbc20c8357e"},"type":"message","timestamp":"2024-10-31T14:53:01.345412+00:00","entry":[{"fullUrl":"urn:uuid:c718d272-64e2-4d4d-91cf-8368a898c148","resource":{"resourceType":"MessageHeader","id":"c718d272-64e2-4d4d-91cf-8368a898c148","meta":{"profile":["https://gematik.de/fhir/erp-servicerequest/StructureDefinition/erp-service-request-request-header"]},"eventCoding":{"system":"https://gematik.de/fhir/atf/CodeSystem/service-identifier-cs","code":"eRezept_Rezeptanforderung;Rezeptanfrage","display":"Anfrage an einen Arzt ein Rezept auszustellen"},"destination":[{"name":"Praxis Hans Topp-Glücklich","endpoint":"mailto:practitioner@test.kim.de"}],"sender":{"identifier":{"system":"https://gematik.de/fhir/sid/telematik-id","value":"5-test-telematik-id-pflegeinrichtung"},"display":"Pflegeheim Immergrün"},"source":{"name":"HealthCare-Source","software":"HealthCare-Software","version":"1.0.0","contact":{"system":"email","value":"info@hcs.email"},"endpoint":"mailto:healthcare-service@test.kim.de"},"responsible":{"reference":"urn:uuid:258ad91c-45bd-4aa0-a161-9e84187c1df6"},"focus":[{"reference":"urn:uuid:0455ff78-ff45-4c31-8dc4-9415844ad543"}]}},{"fullUrl":"urn:uuid:0455ff78-ff45-4c31-8dc4-9415844ad543","resource":{"resourceType":"ServiceRequest","id":"0455ff78-ff45-4c31-8dc4-9415844ad543","meta":{"profile":["https://gematik.de/fhir/erp-servicerequest/StructureDefinition/erp-service-request-prescription-request"]},"identifier":[{"system":"https://gematik.de/fhir/erp-servicerequest/sid/RequestIdentifier","value":"f1574863-2bd9-4018-a3ff-27cc01f875ad"},{"system":"https://gematik.de/fhir/erp-servicerequest/sid/ProcedureIdentifier","value":"42226d12-5c28-44a5-b3c0-293a106ea23b"}],"basedOn":[{"reference":"uuid:f4010966-673d-4c80-a7cc-a16100682295"}],"requisition":{"system":"https://gematik.de/fhir/erp-servicerequest/sid/ProcedureIdentifier","value":"42226d12-5c28-44a5-b3c0-293a106ea23b"},"status":"active","intent":"order","priority":"urgent","code":{"coding":[{"system":"https://gematik.de/fhir/erp-servicerequest/CodeSystem/service-request-type-cs","code":"prescription-request"}]},"orderDetail":[{"coding":[{"system":"https://gematik.de/fhir/erp-servicerequest/CodeSystem/prescription-fullfillment-type-cs","code":"return-to-requester"}]}],"subject":{"reference":"Patient/a4601b94-0861-4f75-a7b3-8e8d7dde5895"},"occurrenceDateTime":"2024-10-31T15:53:01.344890+01:00","authoredOn":"2024-10-31T15:53:01.344893+01:00","requester":{"reference":"Organization/258ad91c-45bd-4aa0-a161-9e84187c1df6"},"performer":[{"identifier":{"system":"http://gematik.de/fhir/sid/KIM-Adresse","value":"practitioner@gluecklich.kim.telematik"}}],"reasonCode":[{"extension":[{"url":"https://gematik.de/fhir/erp-servicerequest/StructureDefinition/remaining-supply-ex","valueQuantity":{"value":7,"unit":"Stück"}}],"coding":[{"system":"https://gematik.de/fhir/erp-servicerequest/CodeSystem/medication-request-reason-cs","code":"exhausted-range"}],"text":"Medikament läuft am 31.01.2025 aus. Es sind noch 7 stk übrig."}],"reasonReference":[{"reference":"uuid:9c2af0fc-41cd-404b-aef8-dbad3fd59169"},{"reference":"uuid:d3737948-c759-4885-88cd-40b9af4a4341"}],"note":[{"time":"2024-10-31T15:53:01.345080+01:00","text":"Wird weiterhin benötigt, bitte um Verlängerung."}]}},{"fullUrl":"urn:uuid:9517312b-4d57-4211-80b5-1099311d3a88","resource":{"resourceType":"Medication","id":"9517312b-4d57-4211-80b5-1099311d3a88","meta":{"profile":["https://fhir.kbv.de/StructureDefinition/KBV_PR_ERP_Medication_PZN|1.1.0"]},"extension":[{"url":"https://fhir.kbv.de/StructureDefinition/KBV_EX_Base_Medication_Type","valueCodeableConcept":{"coding":[{"system":"http://snomed.info/sct","version":"http://snomed.info/sct/900000000000207008/version/20220331","code":"763158003","display":"Medicinal product (product)"}]}},{"url":"https://fhir.kbv.de/StructureDefinition/KBV_EX_ERP_Medication_Category","valueCoding":{"system":"https://fhir.kbv.de/CodeSystem/KBV_CS_ERP_Medication_Category","code":"00"}},{"url":"https://fhir.kbv.de/StructureDefinition/KBV_EX_ERP_Medication_Vaccine","valueBoolean":false},{"url":"http://fhir.de/StructureDefinition/normgroesse","valueCode":"N1"}],"code":{"coding":[{"system":"http://fhir.de/CodeSystem/ifa/pzn","code":"08585997"}],"text":"Prospan® Hustensaft 100ml"},"form":{"coding":[{"system":"https://fhir.kbv.de/CodeSystem/KBV_CS_SFHIR_KBV_DARREICHUNGSFORM","code":"FLE"}]}}},{"fullUrl":"urn:uuid:a4601b94-0861-4f75-a7b3-8e8d7dde5895","resource":{"resourceType":"Patient","id":"a4601b94-0861-4f75-a7b3-8e8d7dde5895","meta":{"profile":["https://gematik.de/fhir/erp-servicerequest/StructureDefinition/erp-service-request-patient"]},"identifier":[{"system":"http://fhir.de/sid/gkv/kvid-10","value":"X234567890"}],"name":[{"use":"official","family":"Königsstein","_family":{"extension":[{"url":"http://hl7.org/fhir/StructureDefinition/humanname-own-name","valueString":"Königsstein"}]},"given":["Ludger"]}],"birthDate":"1935-06-22","address":[{"type":"both","line":["Musterstr. 1"],"_line":[{"extension":[{"url":"http://hl7.org/fhir/StructureDefinition/iso21090-ADXP-houseNumber","valueString":"1"},{"url":"http://hl7.org/fhir/StructureDefinition/iso21090-ADXP-streetName","valueString":"Musterstr."}]}],"city":"Berlin","postalCode":"10623"}]}},{"fullUrl":"urn:uuid:f4010966-673d-4c80-a7cc-a16100682295","resource":{"resourceType":"MedicationRequest","id":"f4010966-673d-4c80-a7cc-a16100682295","meta":{"profile":["https://gematik.de/fhir/erp-servicerequest/StructureDefinition/erp-service-request-medication-request"]},"extension":[{"url":"https://gematik.de/fhir/erp-servicerequest/StructureDefinition/prescription-id-ex","valueIdentifier":{"system":"https://gematik.de/fhir/erp/NamingSystem/GEM_ERP_NS_PrescriptionId","value":"160.100.000.000.001.36"}}],"status":"active","intent":"order","medicationReference":{"reference":"urn:uuid:9517312b-4d57-4211-80b5-1099311d3a88"},"subject":{"reference":"urn:uuid:a4601b94-0861-4f75-a7b3-8e8d7dde5895"},"authoredOn":"2024-10-31T15:53:01.344316+01:00","dosageInstruction":[{"text":"2mal tägl. 5ml"}],"dispenseRequest":{"quantity":{"value":1,"system":"http://unitsofmeasure.org","code":"{Package}"}}}},{"fullUrl":"urn:uuid:258ad91c-45bd-4aa0-a161-9e84187c1df6","resource":{"resourceType":"Organization","id":"258ad91c-45bd-4aa0-a161-9e84187c1df6","meta":{"profile":["https://gematik.de/fhir/erp-servicerequest/StructureDefinition/erp-service-request-organization"],"tag":[{"system":"https://gematik.de/fhir/directory/CodeSystem/Origin","code":"owner"}]},"identifier":[{"system":"https://gematik.de/fhir/sid/telematik-id","value":"1-031234567"}],"name":"Pflegeheim Immergrün","address":[{"type":"both","line":["Musterstr. 2"],"city":"Berlin","postalCode":"10623"}],"contact":[{"telecom":[{"system":"phone","value":"0301234567"},{"system":"email","value":"pflegeheim.immergrün.arzt@sana-pflegeheime.kim.telematik"}]}]}},{"fullUrl":"urn:uuid:9c2af0fc-41cd-404b-aef8-dbad3fd59169","resource":{"resourceType":"Observation","id":"9c2af0fc-41cd-404b-aef8-dbad3fd59169","meta":{"profile":["https://gematik.de/fhir/erp-servicerequest/StructureDefinition/erp-service-request-remaining-medication"]},"status":"final","code":{"coding":[{"system":"https://gematik.de/fhir/erp-servicerequest/CodeSystem/medication-observation-cs","code":"range-of-medication"}]},"subject":{"reference":"urn:uuid:a4601b94-0861-4f75-a7b3-8e8d7dde5895"},"valueDateTime":"2023-01-31"}},{"fullUrl":"urn:uuid:d3737948-c759-4885-88cd-40b9af4a4341","resource":{"resourceType":"Observation","id":"d3737948-c759-4885-88cd-40b9af4a4341","meta":{"profile":["https://gematik.de/fhir/erp-servicerequest/StructureDefinition/erp-service-request-remaining-medication"]},"status":"final","code":{"coding":[{"system":"https://gematik.de/fhir/erp-servicerequest/CodeSystem/medication-observation-cs","code":"range-of-medication"}]},"subject":{"reference":"urn:uuid:a4601b94-0861-4f75-a7b3-8e8d7dde5895"},"valueQuantity":{"value":7,"unit":"stk"}}}]}