<?xml version='1.0' encoding='utf-8'?>
<Bundle xmlns="http://hl7.org/fhir"><id value="916c1e1e-05d2-416f-a2e3-fcbc20c8357e"/><meta><profile value="https://gematik.de/fhir/erp-servicerequest/StructureDefinition/erp-service-request-message-container"/></meta><identifier><system value="urn:ietf:rfc:3986"/><value value="urn:uuid:916c1e1e-05d2-416f-a2e3-fcbc20c8357e"/></identifier><type value="message"/><timestamp value="2024-10-31T14:53:01.345412+00:00"/><entry><fullUrl value="urn:uuid:c718d272-64e2-4d4d-91cf-8368a898c148"/><resource><MessageHeader><id value="c718d272-64e2-4d4d-91cf-8368a898c148"/><meta><profile value="https://gematik.de/fhir/erp-servicerequest/StructureDefinition/erp-service-request-request-header"/></meta><eventCoding><system value="https://gematik.de/fhir/atf/CodeSystem/service-identifier-cs"/><code value="eRezept_Rezeptanforderung;Rezeptanfrage"/><display value="Anfrage an einen Arzt ein Rezept auszustellen"/></eventCoding><destination><name value="Praxis Hans Topp-Glücklich"/><endpoint value="mailto:practitioner@test.kim.de"/></destination><sender><identifier><system value="https://gematik.de/fhir/sid/telematik-id"/><value value="5-test-telematik-id-pflegeinrichtung"/></identifier><display value="Pflegeheim Immergrün"/></sender><source><name value="HealthCare-Source"/><software value="HealthCare-Software"/><version value="1.0.0"/><contact><system value="email"/><value value="info@hcs.email"/></contact><endpoint value="mailto:healthcare-service@test.kim.de"/></source><responsible><reference value="urn:uuid:258ad91c-45bd-4aa0-a161-9e84187c1df6"/></responsible><focus><reference value="urn:uuid:0455ff78-ff45-4c31-8dc4-9415844ad543"/></focus></MessageHeader></resource></entry><entry><fullUrl value="urn:uuid:0455ff78-ff45-4c31-8dc4-9415844ad543"/><resource><ServiceRequest><id value="0455ff78-ff45-4c31-8dc4-9415844ad543"/><meta><profile value="https://gematik.de/fhir/erp-servicerequest/StructureDefinition/erp-service-request-prescription-request"/></meta><identifier><system value="https://gematik.de/fhir/erp-servicerequest/sid/RequestIdentifier"/><value value="f1574863-2bd9-4018-a3ff-27cc01f875ad"/></identifier><identifier><system value="https://gematik.de/fhir/erp-servicerequest/sid/ProcedureIdentifier"/><value value="42226d12-5c28-44a5-b3c0-293a106ea23b"/></identifier><basedOn><reference value="uuid:f4010966-673d-4c80-a7cc-a16100682295"/></basedOn><requisition><system value="https://gematik.de/fhir/erp-servicerequest/sid/ProcedureIdentifier"/><value value="42226d12-5c28-44a5-b3c0-293a106ea23b"/></requisition><status value="active"/><intent value="order"/><priority value="urgent"/><code><coding><system value="https://gematik.de/fhir/erp-servicerequest/CodeSystem/service-request-type-cs"/><code value="prescription-request"/></coding></code><orderDetail><coding><system value="https://gematik.de/fhir/erp-servicerequest/CodeSystem/prescription-fullfillment-type-cs"/><code value="return-to-requester"/></coding></orderDetail><subject><reference value="Patient/a4601b94-0861-4f75-a7b3-8e8d7dde5895"/></subject><occurrenceDateTime value="2024-10-31T15:53:01.344890+01:00"/><authoredOn value="2024-10-31T15:53:01.344893+01:00"/><requester><reference value="Organization/258ad91c-45bd-4aa0-a161-9e84187c1df6"/></requester><performer><identifier><system value="http://gematik.de/fhir/sid/KIM-Adresse"/><value value="practitioner@gluecklich.kim.telematik"/></identifier></performer><reasonCode><extension url="https://gematik.de/fhir/erp-servicerequest/StructureDefinition/remaining-supply-ex"><valueQuantity><value value="7.0"/><unit value="Stück"/></valueQuantity></extension><coding><system value="https://gematik.de/fhir/erp-servicerequest/CodeSystem/medication-request-reason-cs"/><code value="exhausted-range"/></coding><text value="Medikament läuft am 31.01.2025 aus. Es sind noch 7 stk übrig."/></reasonCode><reasonReference><reference value="uuid:9c2af0fc-41cd-404b-aef8-dbad3fd59169"/></reasonReference><reasonReference><reference value="uuid:d3737948-c759-4885-88cd-40b9af4a4341"/></reasonReference><note><time value="2024-10-31T15:53:01.345080+01:00"/><text value="Wird weiterhin benötigt, bitte um Verlängerung."/></note></ServiceRequest></resource></entry><entry><fullUrl value="urn:uuid:9517312b-4d57-4211-80b5-1099311d3a88"/><resource><Medication><id value="9517312b-4d57-4211-80b5-1099311d3a88"/><meta><profile value="https://fhir.kbv.de/StructureDefinition/KBV_PR_ERP_Medication_PZN|1.1.0"/></meta><extension url="https://fhir.kbv.de/StructureDefinition/KBV_EX_Base_Medication_Type"><valueCodeableConcept><coding><system value="http://snomed.info/sct"/><version value="http://snomed.info/sct/900000000000207008/version/20220331"/><code value="763158003"/><display value="Medicinal product (product)"/></coding></valueCodeableConcept></extension><extension url="https://fhir.kbv.de/StructureDefinition/KBV_EX_ERP_Medication_Category"><valueCoding><system value="https://fhir.kbv.de/CodeSystem/KBV_CS_ERP_Medication_Category"/><code value="00"/></valueCoding></extension><extension url="https://fhir.kbv.de/StructureDefinition/KBV_EX_ERP_Medication_Vaccine"><valueBoolean value="false"/></extension><extension url="http://fhir.de/StructureDefinition/normgroesse"><valueCode value="N1"/></extension><code><coding><system value="http://fhir.de/CodeSystem/ifa/pzn"/><code value="08585997"/></coding><text value="Prospan® Hustensaft 100ml"/></code><form><coding><system value="https://fhir.kbv.de/CodeSystem/KBV_CS_SFHIR_KBV_DARREICHUNGSFORM"/><code value="FLE"/></coding></form></Medication></resource></entry><entry><fullUrl value="urn:uuid:a4601b94-0861-4f75-a7b3-8e8d7dde5895"/><resource><Patient><id value="a4601b94-0861-4f75-a7b3-8e8d7dde5895"/><meta><profile value="https://gematik.de/fhir/erp-servicerequest/StructureDefinition/erp-service-request-patient"/></meta><identifier><system value="http://fhir.de/sid/gkv/kvid-10"/><value value="X234567890"/></identifier><name><use value="official"/><family value="Königsstein"><extension url="http://hl7.org/fhir/StructureDefinition/humanname-own-name"><valueString value="Königsstein"/></extension></family><given value="Ludger"/></name><birthDate value="1935-06-22"/><address><type value="both"/><line value="Musterstr. 1"><extension url="http://hl7.org/fhir/StructureDefinition/iso21090-ADXP-houseNumber"><valueString value="1"/></extension><extension url="http://hl7.org/fhir/StructureDefinition/iso21090-ADXP-streetName"><valueString value="Musterstr."/></extension></line><city value="Berlin"/><postalCode value="10623"/></address></Patient></resource></entry><entry><fullUrl value="urn:uuid:f4010966-673d-4c80-a7cc-a16100682295"/><resource><MedicationRequest><id value="f4010966-673d-4c80-a7cc-a16100682295"/><meta><profile value="https://gematik.de/fhir/erp-servicerequest/StructureDefinition/erp-service-request-medication-request"/></meta><extension url="https://gematik.de/fhir/erp-servicerequest/StructureDefinition/prescription-id-ex"><valueIdentifier><system value="https://gematik.de/fhir/erp/NamingSystem/GEM_ERP_NS_PrescriptionId"/><value value="160.100.000.000.001.36"/></valueIdentifier></extension><status value="active"/><intent value="order"/><medicationReference><reference value="urn:uuid:9517312b-4d57-4211-80b5-1099311d3a88"/></medicationReference><subject><reference value="urn:uuid:a4601b94-0861-4f75-a7b3-8e8d7dde5895"/></subject><authoredOn value="2024-10-31T15:53:01.344316+01:00"/><dosageInstruction><text value="2mal tägl. 5ml"/></dosageInstruction><dispenseRequest><quantity><value value="1.0"/><system value="http://unitsofmeasure.org"/><code value="{Package}"/></quantity></dispenseRequest></MedicationRequest></resource></entry><entry><fullUrl value="urn:uuid:258ad91c-45bd-4aa0-a161-9e84187c1df6"/><resource><Organization><id value="258ad91c-45bd-4aa0-a161-9e84187c1df6"/><meta><profile value="https://gematik.de/fhir/erp-servicerequest/StructureDefinition/erp-service-request-organization"/><tag><system value="https://gematik.de/fhir/directory/CodeSystem/Origin"/><code value="owner"/></tag></meta><identifier><system value="https://gematik.de/fhir/sid/telematik-id"/><value value="1-031234567"/></identifier><name value="Pflegeheim Immergrün"/><address><type value="both"/><line value="Musterstr. 2"/><city value="Berlin"/><postalCode value="10623"/></address><contact><telecom><system value="phone"/><value value="0301234567"/></telecom><telecom><system value="email"/><value value="pflegeheim.immergrün.arzt@sana-pflegeheime.kim.telematik"/></telecom></contact></Organization></resource></entry><entry><fullUrl value="urn:uuid:9c2af0fc-41cd-404b-aef8-dbad3fd59169"/><resource><Observation><id value="9c2af0fc-41cd-404b-aef8-dbad3fd59169"/><meta><profile value="https://gematik.de/fhir/erp-servicerequest/StructureDefinition/erp-service-request-remaining-medication"/></meta><status value="final"/><code><coding><system value="https://gematik.de/fhir/erp-servicerequest/CodeSystem/medication-observation-cs"/><code value="range-of-medication"/></coding></code><subject><reference value="urn:uuid:a4601b94-0861-4f75-a7b3-8e8d7dde5895"/></subject><valueDateTime value="2023-01-31"/></Observation></resource></entry><entry><fullUrl value="urn:uuid:d3737948-c759-4885-88cd-40b9af4a4341"/><resource><Observation><id value="d3737948-c759-4885-88cd-40b9af4a4341"/><meta><profile value="https://gematik.de/fhir/erp-servicerequest/StructureDefinition/erp-service-request-remaining-medication"/></meta><status value="final"/><code><coding><system value="https://gematik.de/fhir/erp-servicerequest/CodeSystem/medication-observation-cs"/><code value="range-of-medication"/></coding></code><subject><reference value="urn:uuid:a4601b94-0861-4f75-a7b3-8e8d7dde5895"/></subject><valueQuantity><value value="7.0"/><unit value="stk"/></valueQuantity></Observation></resource></entry></Bundle>