{"resourceType":"Bundle","id":"9fd5e063-ef7e-4bd8-af26-f03f4b9c840f","meta":{"profile":["https://gematik.de/fhir/erp-servicerequest/StructureDefinition/erp-service-request-message-container"]},"identifier":{"system":"urn:ietf:rfc:3986","value":"urn:uuid:9fd5e063-ef7e-4bd8-af26-f03f4b9c840f"},"type":"message","timestamp":"2024-10-31T14:53:02.566774+00:00","entry":[{"fullUrl":"urn:uuid:c2a01881-0d4c-4f90-b80c-b95769a19181","resource":{"resourceType":"MessageHeader","id":"c2a01881-0d4c-4f90-b80c-b95769a19181","meta":{"profile":["https://gematik.de/fhir/erp-servicerequest/StructureDefinition/erp-service-request-request-header"]},"eventCoding":{"system":"https://gematik.de/fhir/atf/CodeSystem/service-identifier-cs","code":"eRezept_Rezeptanforderung;Rezeptbestaetigung","display":"Bestätigung und Übermittlung eines ausgestellten Rezeptes"},"destination":[{"name":"Pflegeheim Immergrün","endpoint":"5-test-telematik-id-pflegeinrichtung"}],"sender":{"identifier":{"system":"https://gematik.de/fhir/sid/telematik-id","value":"5-test-telematik-id-praxis"},"display":"Praxis Hans Topp-Glücklich"},"source":{"name":"DeltaCare Inc.","software":"PraxisFix","version":"1.3.2","contact":{"system":"email","value":"issues@praxisfix-deltacare.de"},"endpoint":"https://deltacare.de/praxisfix/issues"},"responsible":{"reference":"urn:uuid:258ad91c-45bd-4aa0-a161-9e84187c1df6"},"focus":[{"reference":"urn:uuid:0455ff78-ff45-4c31-8dc4-9415844ad543"}]}},{"fullUrl":"urn:uuid:0455ff78-ff45-4c31-8dc4-9415844ad543","resource":{"resourceType":"ServiceRequest","id":"0455ff78-ff45-4c31-8dc4-9415844ad543","meta":{"profile":["https://gematik.de/fhir/erp-servicerequest/StructureDefinition/erp-service-request-prescription-request"]},"extension":[{"url":"https://gematik.de/fhir/erp-servicerequest/StructureDefinition/eprescription-token-ex","valueIdentifier":{"system":"https://gematik.de/fhir/erp/sid/NamingSystemEPrescriptionToken","value":"Task/160.308.184.642.434/$accept?ac=EF4A9cc4ef0fA87d4c8d1DCCeDB8E0CCEEc0aeB8Ac1Ad452Aeeb4AD5A5Fa20c6"}}],"identifier":[{"system":"https://gematik.de/fhir/erp-servicerequest/sid/RequestIdentifier","value":"f1574863-2bd9-4018-a3ff-27cc01f875ad"},{"system":"https://gematik.de/fhir/erp-servicerequest/sid/ProcedureIdentifier","value":"42226d12-5c28-44a5-b3c0-293a106ea23b"}],"basedOn":[{"reference":"urn:uuid:819d6fcd-def7-49a4-bb9b-49dbee04ac1f"}],"requisition":{"system":"https://gematik.de/fhir/erp-servicerequest/sid/ProcedureIdentifier","value":"42226d12-5c28-44a5-b3c0-293a106ea23b"},"status":"completed","intent":"order","priority":"urgent","code":{"coding":[{"system":"https://gematik.de/fhir/erp-servicerequest/CodeSystem/service-request-type-cs","code":"prescription-request"}]},"orderDetail":[{"coding":[{"system":"https://gematik.de/fhir/erp-servicerequest/CodeSystem/prescription-fullfillment-type-cs","code":"return-to-requester"}]}],"subject":{"reference":"Patient/bbfbab76-fd15-422f-a9eb-9d54dbc124a5"},"occurrenceDateTime":"2024-10-31T15:53:01.344890+01:00","authoredOn":"2024-10-31T15:53:01.344893+01:00","requester":{"reference":"Organization/258ad91c-45bd-4aa0-a161-9e84187c1df6"},"performer":[{"identifier":{"system":"http://gematik.de/fhir/sid/KIM-Adresse","value":"practitioner@gluecklich.kim.telematik"}}],"reasonCode":[{"extension":[{"url":"https://gematik.de/fhir/erp-servicerequest/StructureDefinition/remaining-supply-ex","valueQuantity":{"value":7,"unit":"Stück"}}],"coding":[{"system":"https://gematik.de/fhir/erp-servicerequest/CodeSystem/medication-request-reason-cs","code":"exhausted-range"}],"text":"Medikament läuft am 31.01.2025 aus. Es sind noch 7 stk übrig."}],"reasonReference":[{"reference":"uuid:9c2af0fc-41cd-404b-aef8-dbad3fd59169"},{"reference":"uuid:d3737948-c759-4885-88cd-40b9af4a4341"}],"note":[{"time":"2024-10-31T15:53:01.345080+01:00","text":"Wird weiterhin benötigt, bitte um Verlängerung."}]}},{"fullUrl":"urn:uuid:819d6fcd-def7-49a4-bb9b-49dbee04ac1f","resource":{"resourceType":"MedicationRequest","id":"819d6fcd-def7-49a4-bb9b-49dbee04ac1f","meta":{"profile":["https://fhir.kbv.de/StructureDefinition/KBV_PR_ERP_Prescription|1.1.0"]},"extension":[{"url":"https://fhir.kbv.de/StructureDefinition/KBV_EX_ERP_EmergencyServicesFee","valueBoolean":false}],"status":"active","intent":"order","medicationReference":{"reference":"urn:uuid:9517312b-4d57-4211-80b5-1099311d3a88"},"subject":{"reference":"urn:uuid:bbfbab76-fd15-422f-a9eb-9d54dbc124a5"},"authoredOn":"2024-10-31","requester":{"reference":"urn:uuid:65aacb7b-497f-4423-a78c-c1a5bfd97b63"},"insurance":[{"reference":"urn:uuid:fcfcf7ac-c8e3-4bae-b270-74ad67cea4a1"}],"dosageInstruction":[{"extension":[{"url":"https://fhir.kbv.de/StructureDefinition/KBV_EX_ERP_DosageFlag","valueBoolean":true}],"text":"2mal tägl. 5ml"}]}},{"fullUrl":"urn:uuid:9517312b-4d57-4211-80b5-1099311d3a88","resource":{"resourceType":"Medication","id":"9517312b-4d57-4211-80b5-1099311d3a88","meta":{"profile":["https://fhir.kbv.de/StructureDefinition/KBV_PR_ERP_Medication_PZN|1.1.0"]},"extension":[{"url":"https://fhir.kbv.de/StructureDefinition/KBV_EX_Base_Medication_Type","valueCodeableConcept":{"coding":[{"system":"http://snomed.info/sct","version":"http://snomed.info/sct/900000000000207008/version/20220331","code":"763158003","display":"Medicinal product (product)"}]}},{"url":"https://fhir.kbv.de/StructureDefinition/KBV_EX_ERP_Medication_Category","valueCoding":{"system":"https://fhir.kbv.de/CodeSystem/KBV_CS_ERP_Medication_Category","code":"00"}},{"url":"https://fhir.kbv.de/StructureDefinition/KBV_EX_ERP_Medication_Vaccine","valueBoolean":false},{"url":"http://fhir.de/StructureDefinition/normgroesse","valueCode":"N1"}],"code":{"coding":[{"system":"http://fhir.de/CodeSystem/ifa/pzn","code":"08585997"}],"text":"Prospan® Hustensaft 100ml"},"form":{"coding":[{"system":"https://fhir.kbv.de/CodeSystem/KBV_CS_SFHIR_KBV_DARREICHUNGSFORM","code":"FLE"}]}}},{"fullUrl":"urn:uuid:65aacb7b-497f-4423-a78c-c1a5bfd97b63","resource":{"resourceType":"Practitioner","id":"65aacb7b-497f-4423-a78c-c1a5bfd97b63","meta":{"profile":["https://fhir.kbv.de/StructureDefinition/KBV_PR_FOR_Practitioner|1.1.0"]},"identifier":[{"type":{"coding":[{"system":"http://terminology.hl7.org/CodeSystem/v2-0203","code":"LANR"}]},"system":"https://fhir.kbv.de/NamingSystem/KBV_NS_Base_ANR","value":"838382202"},{"type":{"coding":[{"system":"http://terminology.hl7.org/CodeSystem/v2-0203","code":"PRN"}]},"system":"https://gematik.de/fhir/sid/telematik-id","value":"1-838382202"}],"name":[{"use":"official","family":"Topp-Glücklich","_family":{"extension":[{"url":"http://hl7.org/fhir/StructureDefinition/humanname-own-name","valueString":"Topp-Glücklich"}]},"given":["Hans"],"prefix":["Dr. med."]}],"qualification":[{"code":{"coding":[{"system":"https://fhir.kbv.de/CodeSystem/KBV_CS_FOR_Qualification_Type","code":"00"}],"text":"Arzt"}},{"code":{"coding":[{"system":"https://fhir.kbv.de/CodeSystem/KBV_CS_FOR_Berufsbezeichnung","code":"Berufsbezeichnung"}],"text":"Hausarzt"}}]}},{"fullUrl":"urn:uuid:bbfbab76-fd15-422f-a9eb-9d54dbc124a5","resource":{"resourceType":"Patient","id":"bbfbab76-fd15-422f-a9eb-9d54dbc124a5","meta":{"profile":["https://gematik.de/fhir/erp-servicerequest/StructureDefinition/erp-service-request-patient"]},"identifier":[{"system":"http://fhir.de/sid/gkv/kvid-10","value":"X234567890"}],"name":[{"use":"official","family":"Königsstein","_family":{"extension":[{"url":"http://hl7.org/fhir/StructureDefinition/humanname-own-name","valueString":"Königsstein"}]},"given":["Ludger"]}],"birthDate":"1935-06-22","address":[{"type":"both","line":["Musterstr. 1"],"_line":[{"extension":[{"url":"http://hl7.org/fhir/StructureDefinition/iso21090-ADXP-houseNumber","valueString":"1"},{"url":"http://hl7.org/fhir/StructureDefinition/iso21090-ADXP-streetName","valueString":"Musterstr."}]}],"city":"Berlin","postalCode":"10623"}]}},{"fullUrl":"urn:uuid:fcfcf7ac-c8e3-4bae-b270-74ad67cea4a1","resource":{"resourceType":"Coverage","id":"fcfcf7ac-c8e3-4bae-b270-74ad67cea4a1","meta":{"profile":["https://fhir.kbv.de/StructureDefinition/KBV_PR_FOR_Coverage|1.1.0"]},"extension":[{"url":"http://fhir.de/StructureDefinition/gkv/besondere-personengruppe","valueCoding":{"system":"https://fhir.kbv.de/CodeSystem/KBV_CS_SFHIR_KBV_PERSONENGRUPPE","code":"00"}},{"url":"http://fhir.de/StructureDefinition/gkv/dmp-kennzeichen","valueCoding":{"system":"https://fhir.kbv.de/CodeSystem/KBV_CS_SFHIR_KBV_DMP","code":"00"}},{"url":"http://fhir.de/StructureDefinition/gkv/wop","valueCoding":{"system":"https://fhir.kbv.de/CodeSystem/KBV_CS_SFHIR_ITA_WOP","code":"72"}},{"url":"http://fhir.de/StructureDefinition/gkv/versichertenart","valueCoding":{"system":"https://fhir.kbv.de/CodeSystem/KBV_CS_SFHIR_KBV_VERSICHERTENSTATUS","code":"3"}}],"status":"active","type":{"coding":[{"system":"http://fhir.de/CodeSystem/versicherungsart-de-basis","code":"GKV"}]},"beneficiary":{"reference":"urn:uuid:Patient/Example-Patient"},"period":{"end":"2040-04-01"},"payor":[{"identifier":{"system":"http://fhir.de/sid/arge-ik/iknr","value":"108416214"},"display":"AOK Bayern Die Gesundh."}]}},{"fullUrl":"urn:uuid:258ad91c-45bd-4aa0-a161-9e84187c1df6","resource":{"resourceType":"Organization","id":"258ad91c-45bd-4aa0-a161-9e84187c1df6","meta":{"profile":["https://gematik.de/fhir/erp-servicerequest/StructureDefinition/erp-service-request-organization"],"tag":[{"system":"https://gematik.de/fhir/directory/CodeSystem/Origin","code":"owner"}]},"identifier":[{"system":"https://gematik.de/fhir/sid/telematik-id","value":"1-031234567"}],"name":"Pflegeheim Immergrün","address":[{"type":"both","line":["Musterstr. 2"],"city":"Berlin","postalCode":"10623"}],"contact":[{"telecom":[{"system":"phone","value":"0301234567"},{"system":"email","value":"pflegeheim.immergrün.arzt@sana-pflegeheime.kim.telematik"}]}]}}]}