<?xml version='1.0' encoding='utf-8'?>
<Bundle xmlns="http://hl7.org/fhir"><id value="a8036c08-1450-4ed4-829c-6bd54fa7f25e"/><meta><profile value="https://gematik.de/fhir/erp-servicerequest/StructureDefinition/erp-service-request-message-container"/></meta><identifier><system value="urn:ietf:rfc:3986"/><value value="urn:uuid:a8036c08-1450-4ed4-829c-6bd54fa7f25e"/></identifier><type value="message"/><timestamp value="2024-11-05T12:56:22.230363+00:00"/><entry><fullUrl value="urn:uuid:55f4d117-3fff-49da-8ce3-57f36122fc57"/><resource><MessageHeader><id value="55f4d117-3fff-49da-8ce3-57f36122fc57"/><meta><profile value="https://gematik.de/fhir/erp-servicerequest/StructureDefinition/erp-service-request-request-header"/></meta><eventCoding><system value="https://gematik.de/fhir/atf/CodeSystem/service-identifier-cs"/><code value="eRezept_Rezeptanforderung;Abgabebestaetigung"/><display value="Bestätigung der Erfüllung und Abgabe eines Medikamentes"/></eventCoding><destination><name value="Pflegeheim Immergrün"/><endpoint value="5-test-telematik-id-pflegeinrichtung"/></destination><sender><identifier><system value="https://gematik.de/fhir/sid/telematik-id"/><value value="5-test-telematik-id-apotheke"/></identifier><display value="Test Apotheke"/></sender><source><name value="ApoSoft Gmbh"/><software value="ApoFlott"/><version value="1.1.3"/><contact><system value="email"/><value value="issues@apo-flott.de"/></contact><endpoint value="https://aposoft.de/issues"/></source><responsible><reference value="urn:uuid:0856588c-8855-43cf-bf02-7ce32f8c5d48"/></responsible><focus><reference value="urn:uuid:01d2a851-0f1a-4eed-90d7-13e720ac45e6"/></focus></MessageHeader></resource></entry><entry><fullUrl value="urn:uuid:01d2a851-0f1a-4eed-90d7-13e720ac45e6"/><resource><ServiceRequest><id value="01d2a851-0f1a-4eed-90d7-13e720ac45e6"/><meta><profile value="https://gematik.de/fhir/erp-servicerequest/StructureDefinition/erp-service-request-dispense-request"/></meta><identifier><system value="https://gematik.de/fhir/erp-servicerequest/sid/RequestIdentifier"/><value value="e10d305c-9c0b-4ebc-89e6-daeddeb40ef7"/></identifier><identifier><system value="https://gematik.de/fhir/erp-servicerequest/sid/ProcedureIdentifier"/><value value="4119f727-ced5-4519-95b6-38be3d5c2b1d"/></identifier><basedOn><reference value="uuid:4388b4cc-d566-4a32-9c69-ff6ef1a235f6"/></basedOn><requisition><system value="https://gematik.de/fhir/erp-servicerequest/sid/ProcedureIdentifier"/><value value="4119f727-ced5-4519-95b6-38be3d5c2b1d"/></requisition><status value="completed"/><intent value="filler-order"/><priority value="urgent"/><code><coding><system value="https://gematik.de/fhir/erp-servicerequest/CodeSystem/service-request-type-cs"/><code value="dispense-request"/></coding></code><subject><reference value="Patient/f4fcf736-8216-4bfd-9116-f8ee2af22f7e"/></subject><occurrenceDateTime value="2024-11-05T13:56:21.202237+01:00"/><authoredOn value="2024-11-05T13:56:21.202244+01:00"/><requester><reference value="Organization/28bb247f-d226-4a29-8277-93b92e932b71"/></requester><performer><identifier><system value="http://gematik.de/fhir/sid/KIM-Adresse"/><value value="Test Apotheke"/></identifier></performer><note><time value="2024-11-05T13:56:21.202315+01:00"/><text value="Bitte wie üblich zur Abholung bereitlegen."/></note></ServiceRequest></resource></entry><entry><fullUrl value="urn:uuid:None"/><resource><Bundle><type value="transaction"/><entry><fullUrl value="http://erp-servicerequest-test.de/MedicationDispense/562495ab-d34d-4142-b357-858687de430d"/><resource><MedicationDispense><id value="562495ab-d34d-4142-b357-858687de430d"/><meta><profile value="https://gematik.de/fhir/erp/StructureDefinition/GEM_ERP_PR_MedicationDispense|1.2"/></meta><contained><Medication><id value="95271c87-416e-4518-9f49-68c6551cfe3d"/><meta><profile value="https://fhir.kbv.de/StructureDefinition/KBV_PR_ERP_Medication_PZN|1.1.0"/></meta><code><coding><system value="http://fhir.de/CodeSystem/ifa/pzn"/><code value="08585997"/></coding><text value="Prospan® Hustensaft 100ml N1"/></code></Medication></contained><identifier><use value="official"/><system value="https://gematik.de/fhir/erp/NamingSystem/GEM_ERP_NS_PrescriptionId"/><value value="160.100.000.000.002.36"/></identifier><status value="completed"/><medicationReference><reference value="urn:uuid:#95271c87-416e-4518-9f49-68c6551cfe3d"/></medicationReference><subject><reference value="urn:uuid:X123456789"/></subject><performer><actor><identifier><system value="https://gematik.de/fhir/sid/telematik-id"/><value value="12345678901234567890"/></identifier></actor></performer><whenHandedOver value="2020-04-16T13:44:27.957000+00:00"/><dosageInstruction><sequence value="1"/><text value="Eine Tablette täglich"/><timing><repeat><frequency value="1"/><period value="1.0"/><periodUnit value="d"/></repeat></timing><doseAndRate><type><coding><code value="ordered"/></coding></type><doseQuantity><value value="1.0"/><unit value="tablet"/></doseQuantity></doseAndRate></dosageInstruction></MedicationDispense></resource></entry></Bundle></resource></entry><entry><fullUrl value="urn:uuid:f4fcf736-8216-4bfd-9116-f8ee2af22f7e"/><resource><Patient><id value="f4fcf736-8216-4bfd-9116-f8ee2af22f7e"/><meta><profile value="https://gematik.de/fhir/erp-servicerequest/StructureDefinition/erp-service-request-patient"/></meta><identifier><system value="http://fhir.de/sid/gkv/kvid-10"/><value value="X234567890"/></identifier><name><use value="official"/><family value="Königsstein"><extension url="http://hl7.org/fhir/StructureDefinition/humanname-own-name"><valueString value="Königsstein"/></extension></family><given value="Ludger"/></name><birthDate value="1935-06-22"/><address><type value="both"/><line value="Musterstr. 1"><extension url="http://hl7.org/fhir/StructureDefinition/iso21090-ADXP-houseNumber"><valueString value="1"/></extension><extension url="http://hl7.org/fhir/StructureDefinition/iso21090-ADXP-streetName"><valueString value="Musterstr."/></extension></line><city value="Berlin"/><postalCode value="10623"/></address></Patient></resource></entry><entry><fullUrl value="urn:uuid:0856588c-8855-43cf-bf02-7ce32f8c5d48"/><resource><Organization><id value="0856588c-8855-43cf-bf02-7ce32f8c5d48"/><meta><profile value="https://gematik.de/fhir/erp-servicerequest/StructureDefinition/erp-service-request-organization"/><tag><system value="https://gematik.de/fhir/directory/CodeSystem/Origin"/><code value="owner"/></tag></meta><identifier><system value="https://gematik.de/fhir/sid/telematik-id"/><value value="1-431234567"/></identifier><name value="Adler Apotheke"/><address><type value="both"/><line value="Malerstraße. 1"/><city value="Berlin"/><postalCode value="10523"/></address><contact><telecom><system value="phone"/><value value="0305234567"/></telecom><telecom><system value="email"/><value value="apotheke@kim.telematik.de"/></telecom></contact></Organization></resource></entry></Bundle>