{"resourceType":"Bundle","id":"fc5b4cbb-0275-4c69-af9b-b3b232a37dc8","meta":{"profile":["https://gematik.de/fhir/erp-servicerequest/StructureDefinition/erp-service-request-message-container"]},"identifier":{"system":"urn:ietf:rfc:3986","value":"urn:uuid:fc5b4cbb-0275-4c69-af9b-b3b232a37dc8"},"type":"message","timestamp":"2024-11-01T14:18:57.803106+00:00","entry":[{"fullUrl":"urn:uuid:8f5d14a2-ae54-467e-b7ec-7f0fa88b3580","resource":{"resourceType":"MessageHeader","id":"8f5d14a2-ae54-467e-b7ec-7f0fa88b3580","meta":{"profile":["https://gematik.de/fhir/erp-servicerequest/StructureDefinition/erp-service-request-request-header"]},"eventCoding":{"system":"https://gematik.de/fhir/atf/CodeSystem/service-identifier-cs","code":"eRezept_Rezeptanforderung;Abgabebestaetigung","display":"Bestätigung der Erfüllung und Abgabe eines Medikamentes"},"destination":[{"name":"Pflegeheim Immergrün","endpoint":"5-test-telematik-id-pflegeinrichtung"}],"sender":{"identifier":{"system":"https://gematik.de/fhir/sid/telematik-id","value":"5-test-telematik-id-apotheke"},"display":"Test Apotheke"},"source":{"name":"ApoSoft Gmbh","software":"ApoFlott","version":"1.1.3","contact":{"system":"email","value":"issues@apo-flott.de"},"endpoint":"https://aposoft.de/issues"},"responsible":{"reference":"urn:uuid:06be7194-fa2e-46fd-8b3a-74d9aef99ad7"},"focus":[{"reference":"urn:uuid:57a891b7-7ab6-421e-818d-ccd19b09dcb8"}]}},{"fullUrl":"urn:uuid:57a891b7-7ab6-421e-818d-ccd19b09dcb8","resource":{"resourceType":"ServiceRequest","id":"57a891b7-7ab6-421e-818d-ccd19b09dcb8","meta":{"profile":["https://gematik.de/fhir/erp-servicerequest/StructureDefinition/erp-service-request-dispense-request"]},"identifier":[{"system":"https://gematik.de/fhir/erp-servicerequest/sid/RequestIdentifier","value":"fbe3a9c2-c776-43c1-932e-030a42b52482"},{"system":"https://gematik.de/fhir/erp-servicerequest/sid/ProcedureIdentifier","value":"b5e0292a-a91d-4ca4-92e2-3b8e9e6a42e5"}],"basedOn":[{"reference":"uuid:f6ca73cc-7127-4b33-b768-19bbb49bf30f"}],"requisition":{"system":"https://gematik.de/fhir/erp-servicerequest/sid/ProcedureIdentifier","value":"b5e0292a-a91d-4ca4-92e2-3b8e9e6a42e5"},"status":"completed","intent":"filler-order","priority":"urgent","code":{"coding":[{"system":"https://gematik.de/fhir/erp-servicerequest/CodeSystem/service-request-type-cs","code":"dispense-request"}]},"subject":{"reference":"Patient/57e3698a-c135-43f9-a046-72515cef90d8"},"occurrenceDateTime":"2024-11-01T15:18:56.773064+01:00","authoredOn":"2024-11-01T15:18:56.773071+01:00","requester":{"reference":"Organization/273eefa4-6663-4a1f-937a-c9ed2004be2e"},"performer":[{"identifier":{"system":"http://gematik.de/fhir/sid/KIM-Adresse","value":"Test Apotheke"}}],"note":[{"time":"2024-11-01T15:18:56.773148+01:00","text":"Bitte wie üblich zur Abholung bereitlegen."}]}},{"fullUrl":"urn:uuid:None","resource":{"resourceType":"Bundle","type":"transaction","entry":[{"fullUrl":"http://erp-servicerequest-test.de/MedicationDispense/064850b1-8b7c-41de-acd7-da3c84abd5a3","resource":{"resourceType":"MedicationDispense","id":"064850b1-8b7c-41de-acd7-da3c84abd5a3","meta":{"profile":["https://gematik.de/fhir/erp/StructureDefinition/GEM_ERP_PR_MedicationDispense|1.2"]},"contained":[{"resourceType":"Medication","id":"4414aef2-6a05-4bc8-bcd9-fd9b96d6ef00","meta":{"profile":["https://fhir.kbv.de/StructureDefinition/KBV_PR_ERP_Medication_PZN|1.1.0"]},"code":{"coding":[{"system":"http://fhir.de/CodeSystem/ifa/pzn","code":"08585997"}],"text":"Prospan® Hustensaft 100ml N1"}}],"identifier":[{"use":"official","system":"https://gematik.de/fhir/erp/NamingSystem/GEM_ERP_NS_PrescriptionId","value":"160.100.000.000.002.36"}],"status":"completed","medicationReference":{"reference":"urn:uuid:#4414aef2-6a05-4bc8-bcd9-fd9b96d6ef00"},"subject":{"reference":"urn:uuid:X123456789"},"performer":[{"actor":{"identifier":{"system":"https://gematik.de/fhir/sid/telematik-id","value":"12345678901234567890"}}}],"whenHandedOver":"2020-04-16T13:44:27.957000+00:00","dosageInstruction":[{"sequence":1,"text":"Eine Tablette täglich","timing":{"repeat":{"frequency":1,"period":1,"periodUnit":"d"}},"doseAndRate":[{"type":{"coding":[{"code":"ordered"}]},"doseQuantity":{"value":1,"unit":"tablet"}}]}]}}]}},{"fullUrl":"urn:uuid:57e3698a-c135-43f9-a046-72515cef90d8","resource":{"resourceType":"Patient","id":"57e3698a-c135-43f9-a046-72515cef90d8","meta":{"profile":["https://gematik.de/fhir/erp-servicerequest/StructureDefinition/erp-service-request-patient"]},"identifier":[{"system":"http://fhir.de/sid/gkv/kvid-10","value":"X234567890"}],"name":[{"use":"official","family":"Königsstein","_family":{"extension":[{"url":"http://hl7.org/fhir/StructureDefinition/humanname-own-name","valueString":"Königsstein"}]},"given":["Ludger"]}],"birthDate":"1935-06-22","address":[{"type":"both","line":["Musterstr. 1"],"_line":[{"extension":[{"url":"http://hl7.org/fhir/StructureDefinition/iso21090-ADXP-houseNumber","valueString":"1"},{"url":"http://hl7.org/fhir/StructureDefinition/iso21090-ADXP-streetName","valueString":"Musterstr."}]}],"city":"Berlin","postalCode":"10623"}]}},{"fullUrl":"urn:uuid:06be7194-fa2e-46fd-8b3a-74d9aef99ad7","resource":{"resourceType":"Organization","id":"06be7194-fa2e-46fd-8b3a-74d9aef99ad7","meta":{"profile":["https://gematik.de/fhir/erp-servicerequest/StructureDefinition/erp-service-request-organization"],"tag":[{"system":"https://gematik.de/fhir/directory/CodeSystem/Origin","code":"owner"}]},"identifier":[{"system":"https://gematik.de/fhir/sid/telematik-id","value":"1-431234567"}],"name":"Adler Apotheke","address":[{"type":"both","line":["Malerstraße. 1"],"city":"Berlin","postalCode":"10523"}],"contact":[{"telecom":[{"system":"phone","value":"0305234567"},{"system":"email","value":"apotheke@kim.telematik.de"}]}]}}]}