<?xml version='1.0' encoding='utf-8'?>
<Bundle xmlns="http://hl7.org/fhir">
    <id value="ce4db9dc-d36e-4501-9f51-6d74395b0651"/>
    <meta>
        <profile value="https://gematik.de/fhir/atf/StructureDefinition/bundle-app-transport-framework"/>
    </meta>
    <identifier>
        <system value="urn:ietf:rfc:3986"/>
        <value value="urn:uuid:ce4db9dc-d36e-4501-9f51-6d74395b0651"/>
    </identifier>
    <type value="message"/>
    <timestamp value="2024-10-30T12:46:24.708789+00:00"/>
    <entry>
        <fullUrl value="urn:uuid:b1c64a5f-edfc-4a8f-833f-ef4e3a9a2a52"/>
        <resource>
            <MessageHeader>
                <id value="b1c64a5f-edfc-4a8f-833f-ef4e3a9a2a52"/>
                <meta>
                    <profile value="https://gematik.de/fhir/atf/StructureDefinition/message-header-app-transport"/>
                </meta>
                <eventCoding>
                    <system value="https://gematik.de/fhir/atf/CodeSystem/service-identifier-cs"/>
                    <code value="eRezept_Rezeptanforderung;Rezeptanfrage"/>
                    <display value="Anfrage an einen Arzt ein Rezept auszustellen"/>
                </eventCoding>
                <destination>
                    <name value="Praxis Hans Topp-Glücklich"/>
                    <endpoint value="mailto:practitioner@test.kim.de"/>
                </destination>
                <sender>
                    <identifier>
                        <system value="http://gematik.de/fhir/sid/KIM-Adresse"/>
                        <value value="mailto:healthcare-service@test.kim.de"/>
                    </identifier>
                    <display value="Pflegeheim Immergrün"/>
                </sender>
                <source>
                    <name value="HealthCare-Source"/>
                    <software value="HealthCare-Software"/>
                    <version value="1.0.0"/>
                    <contact>
                        <system value="email"/>
                        <value value="info@hcs.email"/>
                    </contact>
                    <endpoint value="https://ps_solutions.com/jira_helpdesk"/>
                </source>
                <responsible>
                    <reference value="urn:uuid:b6cbf08e-1a44-4087-8fa1-9ab1fea52be1"/>
                </responsible>
                <focus>
                    <reference value="urn:uuid:43ddfb34-8f0d-4528-be48-425439262f3a"/>
                </focus>
            </MessageHeader>
        </resource>
    </entry>
    <entry>
        <fullUrl value="urn:uuid:43ddfb34-8f0d-4528-be48-425439262f3a"/>
        <resource>
            <ServiceRequest>
                <id value="43ddfb34-8f0d-4528-be48-425439262f3a"/>
                <meta>
                    <profile value="https://gematik.de/fhir/erp-servicerequest/StructureDefinition/erp-service-request-prescription-request"/>
                </meta>
                <identifier>
                    <system value="https://gematik.de/fhir/erp-servicerequest/sid/RequestIdentifier"/>
                    <value value="3a0b434f-45b3-4859-a689-44da2a681851"/>
                </identifier>
                <identifier>
                    <system value="https://gematik.de/fhir/erp-servicerequest/sid/NamingSystemPreDisIdentifier"/>
                    <value value="e9a40715-e7c4-4792-8ff5-b35a4fad4b08"/>
                </identifier>
                <identifier>
                    <system value="https://gematik.de/fhir/erp-servicerequest/sid/ProcedureIdentifier"/>
                    <value value="223dc422-7e1b-4300-a543-5d0302fcb82c"/>
                </identifier>
                <basedOn>
                    <reference value="urn:uuid:a6820bc9-81d9-4b45-9619-2a1648ce8203"/>
                </basedOn>
                <requisition>
                    <system value="https://gematik.de/fhir/erp-servicerequest/sid/ProcedureIdentifier"/>
                    <value value="223dc422-7e1b-4300-a543-5d0302fcb82c"/>
                </requisition>
                <status value="active"/>
                <intent value="order"/>
                <code>
                    <coding>
                        <system value="https://gematik.de/fhir/erp-servicerequest/CodeSystem/service-request-type-cs"/>
                        <code value="prescription-request"/>
                    </coding>
                </code>
                <orderDetail>
                    <coding>
                        <system value="https://gematik.de/fhir/erp-servicerequest/CodeSystem/prescription-fullfillment-type-cs"/>
                        <code value="return-to-requester"/>
                    </coding>
                </orderDetail>
                <subject>
                    <reference value="urn:uuid:ef442bf2-5a2d-4b33-acf5-47d0eda37b10"/>
                </subject>
                <occurrenceDateTime value="2024-10-30T13:46:24.707405+01:00"/>
                <authoredOn value="2024-10-30T13:46:24.707411+01:00"/>
                <requester>
                    <reference value="urn:uuid:b6cbf08e-1a44-4087-8fa1-9ab1fea52be1"/>
                </requester>
                <performer>
                    <identifier>
                        <system value="http://gematik.de/fhir/sid/KIM-Adresse"/>
                        <value value="practitioner@gluecklich.kim.telematik"/>
                    </identifier>
                </performer>
                <reasonCode>
                    <coding>
                        <system value="https://gematik.de/fhir/erp-servicerequest/CodeSystem/medication-request-reason-cs"/>
                        <code value="medication-runs-out"/>
                    </coding>
                </reasonCode>
                <reasonReference>
                    <reference value="urn:uuid:e6860f74-225f-4047-a12d-69d4d60c5b8f"/>
                </reasonReference>
                <reasonReference>
                    <reference value="urn:uuid:cf7a826b-1a90-4a49-a77c-f5d144be5933"/>
                </reasonReference>
                <note>
                    <text value="Medikament läuft am 31.01.2025 aus. Es sind noch 7 stk übrig."/>
                </note>
            </ServiceRequest>
        </resource>
    </entry>
    <entry>
        <fullUrl value="urn:uuid:6a60288f-e493-42b8-89d7-db7902497f0a"/>
        <resource>
            <Medication>
                <id value="6a60288f-e493-42b8-89d7-db7902497f0a"/>
                <meta>
                    <profile value="https://fhir.kbv.de/StructureDefinition/KBV_PR_ERP_Medication_PZN|1.1.0"/>
                </meta>
                <extension url="https://fhir.kbv.de/StructureDefinition/KBV_EX_Base_Medication_Type">
                    <valueCodeableConcept>
                        <coding>
                            <system value="http://snomed.info/sct"/>
                            <version value="http://snomed.info/sct/900000000000207008/version/20220331"/>
                            <code value="763158003"/>
                            <display value="Medicinal product (product)"/>
                        </coding>
                    </valueCodeableConcept>
                </extension>
                <extension url="https://fhir.kbv.de/StructureDefinition/KBV_EX_ERP_Medication_Category">
                    <valueCoding>
                        <system value="https://fhir.kbv.de/CodeSystem/KBV_CS_ERP_Medication_Category"/>
                        <code value="00"/>
                    </valueCoding>
                </extension>
                <extension url="https://fhir.kbv.de/StructureDefinition/KBV_EX_ERP_Medication_Vaccine">
                    <valueBoolean value="false"/>
                </extension>
                <extension url="http://fhir.de/StructureDefinition/normgroesse">
                    <valueCode value="N1"/>
                </extension>
                <code>
                    <coding>
                        <system value="http://fhir.de/CodeSystem/ifa/pzn"/>
                        <code value="08585997"/>
                    </coding>
                    <text value="Prospan® Hustensaft 100ml"/>
                </code>
                <form>
                    <coding>
                        <system value="https://fhir.kbv.de/CodeSystem/KBV_CS_SFHIR_KBV_DARREICHUNGSFORM"/>
                        <code value="FLE"/>
                    </coding>
                </form>
            </Medication>
        </resource>
    </entry>
    <entry>
        <fullUrl value="urn:uuid:ef442bf2-5a2d-4b33-acf5-47d0eda37b10"/>
        <resource>
            <Patient>
                <id value="ef442bf2-5a2d-4b33-acf5-47d0eda37b10"/>
                <meta>
                    <profile value="https://fhir.kbv.de/StructureDefinition/KBV_PR_FOR_Patient|1.1.0"/>
                </meta>
                <identifier>
                    <type>
                        <coding>
                            <system value="http://fhir.de/CodeSystem/identifier-type-de-basis"/>
                            <code value="GKV"/>
                        </coding>
                    </type>
                    <system value="http://fhir.de/sid/gkv/kvid-10"/>
                    <value value="X234567890"/>
                </identifier>
                <name>
                    <use value="official"/>
                    <family value="Königsstein">
                        <extension url="http://hl7.org/fhir/StructureDefinition/humanname-own-name">
                            <valueString value="Königsstein"/>
                        </extension>
                    </family>
                    <given value="Ludger"/>
                </name>
                <birthDate value="1935-06-22"/>
                <address>
                    <type value="both"/>
                    <line value="Musterstr. 1">
                        <extension url="http://hl7.org/fhir/StructureDefinition/iso21090-ADXP-houseNumber">
                            <valueString value="1"/>
                        </extension>
                        <extension url="http://hl7.org/fhir/StructureDefinition/iso21090-ADXP-streetName">
                            <valueString value="Musterstr."/>
                        </extension>
                    </line>
                    <city value="Berlin"/>
                    <postalCode value="10623"/>
                </address>
            </Patient>
        </resource>
    </entry>
    <entry>
        <fullUrl value="urn:uuid:a6820bc9-81d9-4b45-9619-2a1648ce8203"/>
        <resource>
            <MedicationRequest>
                <id value="a6820bc9-81d9-4b45-9619-2a1648ce8203"/>
                <meta>
                    <profile value="https://gematik.de/fhir/erp-servicerequest/StructureDefinition/erp-service-request-medication-request"/>
                </meta>
                <extension url="https://gematik.de/fhir/erp-servicerequest/StructureDefinition/prescription-id-ex">
                    <valueIdentifier>
                        <system value="https://gematik.de/fhir/erp/NamingSystem/GEM_ERP_NS_PrescriptionId"/>
                        <value value="160.100.000.000.001.36"/>
                    </valueIdentifier>
                </extension>
                <status value="active"/>
                <intent value="order"/>
                <medicationReference>
                    <reference value="urn:uuid:6a60288f-e493-42b8-89d7-db7902497f0a"/>
                </medicationReference>
                <subject>
                    <reference value="urn:uuid:ef442bf2-5a2d-4b33-acf5-47d0eda37b10"/>
                </subject>
                <authoredOn value="2024-10-30T13:46:24.706804+01:00"/>
                <dosageInstruction>
                    <text value="2mal tägl. 5ml"/>
                </dosageInstruction>
                <dispenseRequest>
                    <quantity>
                        <value value="1.0"/>
                        <system value="http://unitsofmeasure.org"/>
                        <code value="{Package}"/>
                    </quantity>
                </dispenseRequest>
            </MedicationRequest>
        </resource>
    </entry>
    <entry>
        <fullUrl value="urn:uuid:b6cbf08e-1a44-4087-8fa1-9ab1fea52be1"/>
        <resource>
            <Organization>
                <id value="b6cbf08e-1a44-4087-8fa1-9ab1fea52be1"/>
                <meta>
                    <profile value="https://gematik.de/fhir/erp-servicerequest/StructureDefinition/erp-service-request-organization"/>
                </meta>
                <identifier>
                    <type>
                        <coding>
                            <system value="https://gematik.de/fhir/directory/CodeSystem/EndpointDirectoryConnectionType"/>
                            <code value="kim-2.0"/>
                        </coding>
                    </type>
                    <system value="http://gematik.de/fhir/sid/KIM-Adresse"/>
                    <value value="pflegeheim.immergrün.arzt@sana-pflegeheime.kim.telematik"/>
                </identifier>
                <identifier>
                    <type>
                        <coding>
                            <system value="http://terminology.hl7.org/CodeSystem/v2-0203"/>
                            <code value="PRN"/>
                        </coding>
                    </type>
                    <system value="https://gematik.de/fhir/sid/telematik-id"/>
                    <value value="1-031234567"/>
                </identifier>
                <identifier>
                    <type>
                        <coding>
                            <system value="http://terminology.hl7.org/CodeSystem/v2-0203"/>
                            <code value="BSNR"/>
                        </coding>
                    </type>
                    <system value="https://fhir.kbv.de/NamingSystem/KBV_NS_Base_BSNR"/>
                    <value value="031234567"/>
                </identifier>
                <name value="Pflegeheim Immergrün"/>
                <telecom>
                    <system value="phone"/>
                    <value value="0301234567"/>
                </telecom>
                <address>
                    <type value="both"/>
                    <line value="Musterstr. 2">
                        <extension url="http://hl7.org/fhir/StructureDefinition/iso21090-ADXP-houseNumber">
                            <valueString value="2"/>
                        </extension>
                        <extension url="http://hl7.org/fhir/StructureDefinition/iso21090-ADXP-streetName">
                            <valueString value="Musterstr."/>
                        </extension>
                    </line>
                    <city value="Berlin"/>
                    <postalCode value="10623"/>
                </address>
            </Organization>
        </resource>
    </entry>
    <entry>
        <fullUrl value="urn:uuid:e6860f74-225f-4047-a12d-69d4d60c5b8f"/>
        <resource>
            <Observation>
                <id value="e6860f74-225f-4047-a12d-69d4d60c5b8f"/>
                <meta>
                    <profile value="https://gematik.de/fhir/erp-servicerequest/StructureDefinition/erp-service-request-remaining-medication"/>
                </meta>
                <status value="final"/>
                <code>
                    <coding>
                        <system value="https://gematik.de/fhir/erp-servicerequest/CodeSystem/medication-observation-cs"/>
                        <code value="range-of-medication"/>
                    </coding>
                </code>
                <subject>
                    <reference value="urn:uuid:ef442bf2-5a2d-4b33-acf5-47d0eda37b10"/>
                </subject>
                <valueDateTime value="2023-01-31"/>
            </Observation>
        </resource>
    </entry>
    <entry>
        <fullUrl value="urn:uuid:cf7a826b-1a90-4a49-a77c-f5d144be5933"/>
        <resource>
            <Observation>
                <id value="cf7a826b-1a90-4a49-a77c-f5d144be5933"/>
                <meta>
                    <profile value="https://gematik.de/fhir/erp-servicerequest/StructureDefinition/erp-service-request-remaining-medication"/>
                </meta>
                <status value="final"/>
                <code>
                    <coding>
                        <system value="https://gematik.de/fhir/erp-servicerequest/CodeSystem/medication-observation-cs"/>
                        <code value="range-of-medication"/>
                    </coding>
                </code>
                <subject>
                    <reference value="urn:uuid:ef442bf2-5a2d-4b33-acf5-47d0eda37b10"/>
                </subject>
                <valueQuantity>
                    <value value="7.0"/>
                    <unit value="stk"/>
                </valueQuantity>
            </Observation>
        </resource>
    </entry>
</Bundle>