<?xml version='1.0' encoding='utf-8'?>
<Bundle xmlns="http://hl7.org/fhir"><id value="988f2385-4708-423a-89ed-a57285740d3b"/><meta><profile value="https://gematik.de/fhir/erp-servicerequest/StructureDefinition/erp-service-request-message-container"/></meta><identifier><system value="urn:ietf:rfc:3986"/><value value="urn:uuid:988f2385-4708-423a-89ed-a57285740d3b"/></identifier><type value="message"/><timestamp value="2024-11-05T12:56:19.953435+00:00"/><entry><fullUrl value="urn:uuid:e1a44966-93c8-4542-b073-f6bf125e4af6"/><resource><MessageHeader><id value="e1a44966-93c8-4542-b073-f6bf125e4af6"/><meta><profile value="https://gematik.de/fhir/erp-servicerequest/StructureDefinition/erp-service-request-request-header"/></meta><eventCoding><system value="https://gematik.de/fhir/atf/CodeSystem/service-identifier-cs"/><code value="eRezept_Rezeptanforderung;Rezeptbestaetigung"/><display value="Bestätigung und Übermittlung eines ausgestellten Rezeptes"/></eventCoding><destination><name value="Pflegeheim Immergrün"/><endpoint value="5-test-telematik-id-pflegeinrichtung"/></destination><sender><identifier><system value="https://gematik.de/fhir/sid/telematik-id"/><value value="5-test-telematik-id-praxis"/></identifier><display value="Praxis Hans Topp-Glücklich"/></sender><source><name value="DeltaCare Inc."/><software value="PraxisFix"/><version value="1.3.2"/><contact><system value="email"/><value value="issues@praxisfix-deltacare.de"/></contact><endpoint value="https://deltacare.de/praxisfix/issues"/></source><responsible><reference value="urn:uuid:28bb247f-d226-4a29-8277-93b92e932b71"/></responsible><focus><reference value="urn:uuid:4119f727-ced5-4519-95b6-38be3d5c2b1d"/></focus></MessageHeader></resource></entry><entry><fullUrl value="urn:uuid:4119f727-ced5-4519-95b6-38be3d5c2b1d"/><resource><ServiceRequest><id value="4119f727-ced5-4519-95b6-38be3d5c2b1d"/><meta><profile value="https://gematik.de/fhir/erp-servicerequest/StructureDefinition/erp-service-request-prescription-request"/></meta><extension url="https://gematik.de/fhir/erp-servicerequest/StructureDefinition/eprescription-token-ex"><valueIdentifier><system value="https://gematik.de/fhir/erp/sid/NamingSystemEPrescriptionToken"/><value value="Task/160.980.321.601.199/$accept?ac=C7f29E51c4D6a51B2aab48d3c136E0080EdEFBeBEeC58209AB2FaC46BdB8e2A5"/></valueIdentifier></extension><identifier><system value="https://gematik.de/fhir/erp-servicerequest/sid/RequestIdentifier"/><value value="e10d305c-9c0b-4ebc-89e6-daeddeb40ef7"/></identifier><identifier><system value="https://gematik.de/fhir/erp-servicerequest/sid/ProcedureIdentifier"/><value value="3a6be261-2c01-494b-bc36-70858ece800f"/></identifier><basedOn><reference value="urn:uuid:4388b4cc-d566-4a32-9c69-ff6ef1a235f6"/></basedOn><requisition><system value="https://gematik.de/fhir/erp-servicerequest/sid/ProcedureIdentifier"/><value value="3a6be261-2c01-494b-bc36-70858ece800f"/></requisition><status value="completed"/><intent value="order"/><priority value="urgent"/><code><coding><system value="https://gematik.de/fhir/erp-servicerequest/CodeSystem/service-request-type-cs"/><code value="prescription-request"/></coding></code><orderDetail><coding><system value="https://gematik.de/fhir/erp-servicerequest/CodeSystem/prescription-fullfillment-type-cs"/><code value="return-to-requester"/></coding></orderDetail><subject><reference value="Patient/88fb921d-c402-49fa-b582-2ba0cf8219ec"/></subject><occurrenceDateTime value="2024-11-05T13:56:17.971809+01:00"/><authoredOn value="2024-11-05T13:56:17.971813+01:00"/><requester><reference value="Organization/28bb247f-d226-4a29-8277-93b92e932b71"/></requester><performer><identifier><system value="http://gematik.de/fhir/sid/KIM-Adresse"/><value value="practitioner@gluecklich.kim.telematik"/></identifier></performer><reasonCode><extension url="https://gematik.de/fhir/erp-servicerequest/StructureDefinition/remaining-supply-ex"><valueQuantity><value value="7.0"/><unit value="Stück"/></valueQuantity></extension><coding><system value="https://gematik.de/fhir/erp-servicerequest/CodeSystem/medication-request-reason-cs"/><code value="exhausted-range"/></coding><text value="Medikament läuft am 31.01.2025 aus. Es sind noch 7 stk übrig."/></reasonCode><reasonReference><reference value="uuid:3a6f92d6-ff9e-4507-a0ae-06a69035dc36"/></reasonReference><reasonReference><reference value="uuid:ee5fac31-527e-4fa5-a18a-95ccde259340"/></reasonReference><note><time value="2024-11-05T13:56:17.972094+01:00"/><text value="Wird weiterhin benötigt, bitte um Verlängerung."/></note></ServiceRequest></resource></entry><entry><fullUrl value="urn:uuid:4388b4cc-d566-4a32-9c69-ff6ef1a235f6"/><resource><MedicationRequest><id value="4388b4cc-d566-4a32-9c69-ff6ef1a235f6"/><meta><profile value="https://fhir.kbv.de/StructureDefinition/KBV_PR_ERP_Prescription|1.1.0"/></meta><extension url="https://fhir.kbv.de/StructureDefinition/KBV_EX_ERP_EmergencyServicesFee"><valueBoolean value="false"/></extension><status value="active"/><intent value="order"/><medicationReference><reference value="urn:uuid:f47730db-e9a0-4dae-91ac-d477e12aec72"/></medicationReference><subject><reference value="urn:uuid:88fb921d-c402-49fa-b582-2ba0cf8219ec"/></subject><authoredOn value="2024-11-05"/><requester><reference value="urn:uuid:863fdefc-3332-4d22-aa26-87bb6ced01fe"/></requester><insurance><reference value="urn:uuid:4ddb1329-0118-4883-9ffa-aa7b6a52a0c7"/></insurance><dosageInstruction><extension url="https://fhir.kbv.de/StructureDefinition/KBV_EX_ERP_DosageFlag"><valueBoolean value="true"/></extension><text value="2mal tägl. 5ml"/></dosageInstruction></MedicationRequest></resource></entry><entry><fullUrl value="urn:uuid:f47730db-e9a0-4dae-91ac-d477e12aec72"/><resource><Medication><id value="f47730db-e9a0-4dae-91ac-d477e12aec72"/><meta><profile value="https://fhir.kbv.de/StructureDefinition/KBV_PR_ERP_Medication_PZN|1.1.0"/></meta><extension url="https://fhir.kbv.de/StructureDefinition/KBV_EX_Base_Medication_Type"><valueCodeableConcept><coding><system value="http://snomed.info/sct"/><version value="http://snomed.info/sct/900000000000207008/version/20220331"/><code value="763158003"/><display value="Medicinal product (product)"/></coding></valueCodeableConcept></extension><extension url="https://fhir.kbv.de/StructureDefinition/KBV_EX_ERP_Medication_Category"><valueCoding><system value="https://fhir.kbv.de/CodeSystem/KBV_CS_ERP_Medication_Category"/><code value="00"/></valueCoding></extension><extension url="https://fhir.kbv.de/StructureDefinition/KBV_EX_ERP_Medication_Vaccine"><valueBoolean value="false"/></extension><extension url="http://fhir.de/StructureDefinition/normgroesse"><valueCode value="N1"/></extension><code><coding><system value="http://fhir.de/CodeSystem/ifa/pzn"/><code value="08585997"/></coding><text value="Prospan® Hustensaft 100ml"/></code><form><coding><system value="https://fhir.kbv.de/CodeSystem/KBV_CS_SFHIR_KBV_DARREICHUNGSFORM"/><code value="FLE"/></coding></form></Medication></resource></entry><entry><fullUrl value="urn:uuid:863fdefc-3332-4d22-aa26-87bb6ced01fe"/><resource><Practitioner><id value="863fdefc-3332-4d22-aa26-87bb6ced01fe"/><meta><profile value="https://fhir.kbv.de/StructureDefinition/KBV_PR_FOR_Practitioner|1.1.0"/></meta><identifier><type><coding><system value="http://terminology.hl7.org/CodeSystem/v2-0203"/><code value="LANR"/></coding></type><system value="https://fhir.kbv.de/NamingSystem/KBV_NS_Base_ANR"/><value value="838382202"/></identifier><identifier><type><coding><system value="http://terminology.hl7.org/CodeSystem/v2-0203"/><code value="PRN"/></coding></type><system value="https://gematik.de/fhir/sid/telematik-id"/><value value="1-838382202"/></identifier><name><use value="official"/><family value="Topp-Glücklich"><extension url="http://hl7.org/fhir/StructureDefinition/humanname-own-name"><valueString value="Topp-Glücklich"/></extension></family><given value="Hans"/><prefix value="Dr. med."/></name><qualification><code><coding><system value="https://fhir.kbv.de/CodeSystem/KBV_CS_FOR_Qualification_Type"/><code value="00"/></coding><text value="Arzt"/></code></qualification><qualification><code><coding><system value="https://fhir.kbv.de/CodeSystem/KBV_CS_FOR_Berufsbezeichnung"/><code value="Berufsbezeichnung"/></coding><text value="Hausarzt"/></code></qualification></Practitioner></resource></entry><entry><fullUrl value="urn:uuid:88fb921d-c402-49fa-b582-2ba0cf8219ec"/><resource><Patient><id value="88fb921d-c402-49fa-b582-2ba0cf8219ec"/><meta><profile value="https://gematik.de/fhir/erp-servicerequest/StructureDefinition/erp-service-request-patient"/></meta><identifier><system value="http://fhir.de/sid/gkv/kvid-10"/><value value="X234567890"/></identifier><name><use value="official"/><family value="Königsstein"><extension url="http://hl7.org/fhir/StructureDefinition/humanname-own-name"><valueString value="Königsstein"/></extension></family><given value="Ludger"/></name><birthDate value="1935-06-22"/><address><type value="both"/><line value="Musterstr. 1"><extension url="http://hl7.org/fhir/StructureDefinition/iso21090-ADXP-houseNumber"><valueString value="1"/></extension><extension url="http://hl7.org/fhir/StructureDefinition/iso21090-ADXP-streetName"><valueString value="Musterstr."/></extension></line><city value="Berlin"/><postalCode value="10623"/></address></Patient></resource></entry><entry><fullUrl value="urn:uuid:4ddb1329-0118-4883-9ffa-aa7b6a52a0c7"/><resource><Coverage><id value="4ddb1329-0118-4883-9ffa-aa7b6a52a0c7"/><meta><profile value="https://fhir.kbv.de/StructureDefinition/KBV_PR_FOR_Coverage|1.1.0"/></meta><extension url="http://fhir.de/StructureDefinition/gkv/besondere-personengruppe"><valueCoding><system value="https://fhir.kbv.de/CodeSystem/KBV_CS_SFHIR_KBV_PERSONENGRUPPE"/><code value="00"/></valueCoding></extension><extension url="http://fhir.de/StructureDefinition/gkv/dmp-kennzeichen"><valueCoding><system value="https://fhir.kbv.de/CodeSystem/KBV_CS_SFHIR_KBV_DMP"/><code value="00"/></valueCoding></extension><extension url="http://fhir.de/StructureDefinition/gkv/wop"><valueCoding><system value="https://fhir.kbv.de/CodeSystem/KBV_CS_SFHIR_ITA_WOP"/><code value="72"/></valueCoding></extension><extension url="http://fhir.de/StructureDefinition/gkv/versichertenart"><valueCoding><system value="https://fhir.kbv.de/CodeSystem/KBV_CS_SFHIR_KBV_VERSICHERTENSTATUS"/><code value="3"/></valueCoding></extension><status value="active"/><type><coding><system value="http://fhir.de/CodeSystem/versicherungsart-de-basis"/><code value="GKV"/></coding></type><beneficiary><reference value="urn:uuid:Patient/Example-Patient"/></beneficiary><period><end value="2040-04-01"/></period><payor><identifier><system value="http://fhir.de/sid/arge-ik/iknr"/><value value="108416214"/></identifier><display value="AOK Bayern Die Gesundh."/></payor></Coverage></resource></entry><entry><fullUrl value="urn:uuid:28bb247f-d226-4a29-8277-93b92e932b71"/><resource><Organization><id value="28bb247f-d226-4a29-8277-93b92e932b71"/><meta><profile value="https://gematik.de/fhir/erp-servicerequest/StructureDefinition/erp-service-request-organization"/><tag><system value="https://gematik.de/fhir/directory/CodeSystem/Origin"/><code value="owner"/></tag></meta><identifier><system value="https://gematik.de/fhir/sid/telematik-id"/><value value="1-031234567"/></identifier><name value="Pflegeheim Immergrün"/><address><type value="both"/><line value="Musterstr. 2"/><city value="Berlin"/><postalCode value="10623"/></address><contact><telecom><system value="phone"/><value value="0301234567"/></telecom><telecom><system value="email"/><value value="pflegeheim.immergrün.arzt@sana-pflegeheime.kim.telematik"/></telecom></contact></Organization></resource></entry></Bundle>