<?xml version='1.0' encoding='utf-8'?>
<Bundle xmlns="http://hl7.org/fhir"><id value="36adcf5d-22f6-47cb-9a75-68ba2ad220d9"/><meta><profile value="https://gematik.de/fhir/erp-servicerequest/StructureDefinition/erp-service-request-message-container"/></meta><identifier><system value="urn:ietf:rfc:3986"/><value value="urn:uuid:36adcf5d-22f6-47cb-9a75-68ba2ad220d9"/></identifier><type value="message"/><timestamp value="2024-11-01T14:18:56.773374+00:00"/><entry><fullUrl value="urn:uuid:6b0e37d5-b1e5-4e80-8c20-955df593877c"/><resource><MessageHeader><id value="6b0e37d5-b1e5-4e80-8c20-955df593877c"/><meta><profile value="https://gematik.de/fhir/erp-servicerequest/StructureDefinition/erp-service-request-request-header"/></meta><eventCoding><system value="https://gematik.de/fhir/atf/CodeSystem/service-identifier-cs"/><code value="eRezept_Rezeptanforderung;Abgabeanfrage"/><display value="Anfrage zur Erfüllung eines Rezeptes und Abgabe des Medikaments"/></eventCoding><destination><name value="Test Apotheke"/><endpoint value="5-test-telematik-id-apotheke"/></destination><sender><identifier><system value="https://gematik.de/fhir/sid/telematik-id"/><value value="5-test-telematik-id-pflegeinrichtung"/></identifier><display value="Pflegeheim Immergrün"/></sender><source><name value="HealthCare-Source"/><software value="HealthCare-Software"/><version value="1.0.0"/><contact><system value="email"/><value value="info@hcs.email"/></contact><endpoint value="mailto:healthcare-service@test.kim.de"/></source><responsible><reference value="urn:uuid:33861b24-404c-47f3-a976-a4c5c059893c"/></responsible><focus><reference value="urn:uuid:57a891b7-7ab6-421e-818d-ccd19b09dcb8"/></focus></MessageHeader></resource></entry><entry><fullUrl value="urn:uuid:57a891b7-7ab6-421e-818d-ccd19b09dcb8"/><resource><ServiceRequest><id value="57a891b7-7ab6-421e-818d-ccd19b09dcb8"/><meta><profile value="https://gematik.de/fhir/erp-servicerequest/StructureDefinition/erp-service-request-dispense-request"/></meta><extension url="https://gematik.de/fhir/erp-servicerequest/StructureDefinition/eprescription-token-ex"><valueIdentifier><system value="https://gematik.de/fhir/erp/sid/NamingSystemEPrescriptionToken"/><value value="Task/160.819.358.313.793/$accept?ac=10bEcd8ACcC14f150c8cfAA7C6729Ead43360DeE2DC8aFa68f1575C0EbAfbAe7"/></valueIdentifier></extension><identifier><system value="https://gematik.de/fhir/erp-servicerequest/sid/RequestIdentifier"/><value value="fbe3a9c2-c776-43c1-932e-030a42b52482"/></identifier><identifier><system value="https://gematik.de/fhir/erp-servicerequest/sid/ProcedureIdentifier"/><value value="b5e0292a-a91d-4ca4-92e2-3b8e9e6a42e5"/></identifier><basedOn><reference value="uuid:f6ca73cc-7127-4b33-b768-19bbb49bf30f"/></basedOn><requisition><system value="https://gematik.de/fhir/erp-servicerequest/sid/ProcedureIdentifier"/><value value="b5e0292a-a91d-4ca4-92e2-3b8e9e6a42e5"/></requisition><status value="active"/><intent value="filler-order"/><priority value="urgent"/><code><coding><system value="https://gematik.de/fhir/erp-servicerequest/CodeSystem/service-request-type-cs"/><code value="dispense-request"/></coding></code><subject><reference value="Patient/57e3698a-c135-43f9-a046-72515cef90d8"/></subject><occurrenceDateTime value="2024-11-01T15:18:56.773064+01:00"/><authoredOn value="2024-11-01T15:18:56.773071+01:00"/><requester><reference value="Organization/273eefa4-6663-4a1f-937a-c9ed2004be2e"/></requester><performer><identifier><system value="http://gematik.de/fhir/sid/KIM-Adresse"/><value value="Test Apotheke"/></identifier></performer><note><time value="2024-11-01T15:18:56.773148+01:00"/><text value="Bitte wie üblich zur Abholung bereitlegen."/></note></ServiceRequest></resource></entry><entry><fullUrl value="urn:uuid:57e3698a-c135-43f9-a046-72515cef90d8"/><resource><Patient><id value="57e3698a-c135-43f9-a046-72515cef90d8"/><meta><profile value="https://gematik.de/fhir/erp-servicerequest/StructureDefinition/erp-service-request-patient"/></meta><identifier><system value="http://fhir.de/sid/gkv/kvid-10"/><value value="X234567890"/></identifier><name><use value="official"/><family value="Königsstein"><extension url="http://hl7.org/fhir/StructureDefinition/humanname-own-name"><valueString value="Königsstein"/></extension></family><given value="Ludger"/></name><birthDate value="1935-06-22"/><address><type value="both"/><line value="Musterstr. 1"><extension url="http://hl7.org/fhir/StructureDefinition/iso21090-ADXP-houseNumber"><valueString value="1"/></extension><extension url="http://hl7.org/fhir/StructureDefinition/iso21090-ADXP-streetName"><valueString value="Musterstr."/></extension></line><city value="Berlin"/><postalCode value="10623"/></address></Patient></resource></entry><entry><fullUrl value="urn:uuid:33861b24-404c-47f3-a976-a4c5c059893c"/><resource><Organization><id value="33861b24-404c-47f3-a976-a4c5c059893c"/><meta><profile value="https://gematik.de/fhir/erp-servicerequest/StructureDefinition/erp-service-request-organization"/><tag><system value="https://gematik.de/fhir/directory/CodeSystem/Origin"/><code value="owner"/></tag></meta><identifier><system value="https://gematik.de/fhir/sid/telematik-id"/><value value="1-031234567"/></identifier><name value="Pflegeheim Immergrün"/><address><type value="both"/><line value="Musterstr. 2"/><city value="Berlin"/><postalCode value="10623"/></address><contact><telecom><system value="phone"/><value value="0301234567"/></telecom><telecom><system value="email"/><value value="pflegeheim.immergrün.arzt@sana-pflegeheime.kim.telematik"/></telecom></contact></Organization></resource></entry></Bundle>