<?xml version='1.0' encoding='utf-8'?>
<Bundle xmlns="http://hl7.org/fhir"><id value="1f2531e0-4e1c-4535-a95a-71681f456ff4"/><meta><profile value="https://gematik.de/fhir/erp-servicerequest/StructureDefinition/erp-service-request-message-container"/></meta><identifier><system value="urn:ietf:rfc:3986"/><value value="urn:uuid:1f2531e0-4e1c-4535-a95a-71681f456ff4"/></identifier><type value="message"/><timestamp value="2024-10-30T14:38:32.643942+00:00"/><entry><fullUrl value="urn:uuid:de1e4171-a9e8-4799-a2b7-4e8dd0db27b1"/><resource><MessageHeader><id value="de1e4171-a9e8-4799-a2b7-4e8dd0db27b1"/><meta><profile value="https://gematik.de/fhir/erp-servicerequest/StructureDefinition/erp-service-request-request-header"/></meta><eventCoding><system value="https://gematik.de/fhir/atf/CodeSystem/service-identifier-cs"/><code value="eRezept_Rezeptanforderung;Abgabeanfrage"/><display value="Anfrage zur Erfüllung eines Rezeptes und Abgabe des Medikaments"/></eventCoding><destination><name value="Test Apotheke"/><endpoint value="5-test-telematik-id-apotheke"/></destination><sender><identifier><system value="https://gematik.de/fhir/sid/telematik-id"/><value value="5-test-telematik-id-pflegeinrichtung"/></identifier><display value="Pflegeheim Immergrün"/></sender><source><name value="HealthCare-Source"/><software value="HealthCare-Software"/><version value="1.0.0"/><contact><system value="email"/><value value="info@hcs.email"/></contact><endpoint value="mailto:healthcare-service@test.kim.de"/></source><responsible><reference value="urn:uuid:f239c693-8a41-45e6-81f7-8397e514d9ef"/></responsible><focus><reference value="urn:uuid:50001bc4-70cf-4c69-8b06-5757984e2e95"/></focus></MessageHeader></resource></entry><entry><fullUrl value="urn:uuid:50001bc4-70cf-4c69-8b06-5757984e2e95"/><resource><ServiceRequest><id value="50001bc4-70cf-4c69-8b06-5757984e2e95"/><meta><profile value="https://gematik.de/fhir/erp-servicerequest/StructureDefinition/erp-service-request-dispense-request"/></meta><identifier><system value="https://gematik.de/fhir/erp-servicerequest/sid/RequestIdentifier"/><value value="a6dabbb7-be81-4c55-add9-aa30f070d199"/></identifier><identifier><system value="https://gematik.de/fhir/erp-servicerequest/sid/ProcedureIdentifier"/><value value="99124356-d833-4d93-96ae-b0e578458c45"/></identifier><basedOn><reference value="urn:uuid:c0146e6a-8aad-49ec-bd60-eb1664a30986"/></basedOn><requisition><system value="https://gematik.de/fhir/erp-servicerequest/sid/ProcedureIdentifier"/><value value="99124356-d833-4d93-96ae-b0e578458c45"/></requisition><status value="active"/><intent value="filler-order"/><code><coding><system value="https://gematik.de/fhir/erp-servicerequest/CodeSystem/service-request-type-cs"/><code value="dispense-request"/></coding></code><subject><reference value="urn:uuid:f91add65-c7a5-4010-8d11-993f7a8a0d33"/></subject><occurrenceDateTime value="2024-10-30T15:38:32.643496+01:00"/><authoredOn value="2024-10-30T15:38:32.643508+01:00"/><requester><reference value="urn:uuid:7d96144f-c5bf-40b8-9272-fcb3fa5ce3c2"/></requester><performer><identifier><system value="http://gematik.de/fhir/sid/KIM-Adresse"/><value value="Test Apotheke"/></identifier></performer><note><text value="Bitte wie üblich zur Abholung bereitlegen."/></note></ServiceRequest></resource></entry><entry><fullUrl value="urn:uuid:99124356-d833-4d93-96ae-b0e578458c45"/><resource><ServiceRequest><id value="99124356-d833-4d93-96ae-b0e578458c45"/><meta><profile value="https://gematik.de/fhir/erp-servicerequest/StructureDefinition/erp-service-request-prescription-request"/></meta><extension url="https://gematik.de/fhir/erp-servicerequest/StructureDefinition/eprescription-token-ex"><valueIdentifier><system value="https://gematik.de/fhir/erp/sid/NamingSystemEPrescriptionToken"/><value value="Task/160.106.778.696.279/$accept?ac=9aAdee2Bb9cEa6ADf49120fe9f3a6C7d3B8d0bfD7Ef3D02d0dE89d9Dcdc1cBF7"/></valueIdentifier></extension><identifier><system value="https://gematik.de/fhir/erp-servicerequest/sid/RequestIdentifier"/><value value="a6dabbb7-be81-4c55-add9-aa30f070d199"/></identifier><identifier><system value="https://gematik.de/fhir/erp-servicerequest/sid/ProcedureIdentifier"/><value value="b4da5f81-e5df-48e7-80ca-f2d3dab79cb6"/></identifier><basedOn><reference value="urn:uuid:c0146e6a-8aad-49ec-bd60-eb1664a30986"/></basedOn><requisition><system value="https://gematik.de/fhir/erp-servicerequest/sid/ProcedureIdentifier"/><value value="b4da5f81-e5df-48e7-80ca-f2d3dab79cb6"/></requisition><status value="completed"/><intent value="order"/><code><coding><system value="https://gematik.de/fhir/erp-servicerequest/CodeSystem/service-request-type-cs"/><code value="prescription-request"/></coding></code><orderDetail><coding><system value="https://gematik.de/fhir/erp-servicerequest/CodeSystem/prescription-fullfillment-type-cs"/><code value="return-to-requester"/></coding></orderDetail><subject><reference value="urn:uuid:f91add65-c7a5-4010-8d11-993f7a8a0d33"/></subject><occurrenceDateTime value="2024-10-30T15:38:30.657831+01:00"/><authoredOn value="2024-10-30T15:38:30.657836+01:00"/><requester><reference value="urn:uuid:7d96144f-c5bf-40b8-9272-fcb3fa5ce3c2"/></requester><performer><identifier><system value="http://gematik.de/fhir/sid/KIM-Adresse"/><value value="practitioner@gluecklich.kim.telematik"/></identifier></performer><reasonCode><coding><system value="https://gematik.de/fhir/erp-servicerequest/CodeSystem/medication-request-reason-cs"/><code value="medication-runs-out"/></coding></reasonCode><reasonReference><reference value="urn:uuid:602ecf1d-4a8a-4580-9a9f-071f9a84b165"/></reasonReference><reasonReference><reference value="urn:uuid:4f9c11c7-e836-46be-aea5-91868e4538d4"/></reasonReference><note><text value="Medikament läuft am 31.01.2025 aus. Es sind noch 7 stk übrig."/></note></ServiceRequest></resource></entry><entry><fullUrl value="urn:uuid:f239c693-8a41-45e6-81f7-8397e514d9ef"/><resource><Organization><id value="f239c693-8a41-45e6-81f7-8397e514d9ef"/><meta><profile value="https://gematik.de/fhir/erp-servicerequest/StructureDefinition/erp-service-request-organization"/></meta><identifier><type><coding><system value="https://gematik.de/fhir/directory/CodeSystem/EndpointDirectoryConnectionType"/><code value="kim-2.0"/></coding></type><system value="http://gematik.de/fhir/sid/KIM-Adresse"/><value value="pflegeheim.immergrün.arzt@sana-pflegeheime.kim.telematik"/></identifier><identifier><type><coding><system value="http://terminology.hl7.org/CodeSystem/v2-0203"/><code value="PRN"/></coding></type><system value="https://gematik.de/fhir/sid/telematik-id"/><value value="1-031234567"/></identifier><identifier><type><coding><system value="http://terminology.hl7.org/CodeSystem/v2-0203"/><code value="BSNR"/></coding></type><system value="https://fhir.kbv.de/NamingSystem/KBV_NS_Base_BSNR"/><value value="031234567"/></identifier><name value="Pflegeheim Immergrün"/><telecom><system value="phone"/><value value="0301234567"/></telecom><address><type value="both"/><line value="Musterstr. 2"><extension url="http://hl7.org/fhir/StructureDefinition/iso21090-ADXP-houseNumber"><valueString value="2"/></extension><extension url="http://hl7.org/fhir/StructureDefinition/iso21090-ADXP-streetName"><valueString value="Musterstr."/></extension></line><city value="Berlin"/><postalCode value="10623"/></address></Organization></resource></entry></Bundle>