{"resourceType":"Bundle","id":"c7147123-5c66-4cf2-be9b-7bc9b9871e2b","meta":{"profile":["https://gematik.de/fhir/erp-servicerequest/StructureDefinition/erp-service-request-message-container"]},"identifier":{"system":"urn:ietf:rfc:3986","value":"urn:uuid:c7147123-5c66-4cf2-be9b-7bc9b9871e2b"},"type":"message","timestamp":"2024-11-01T14:18:55.500777+00:00","entry":[{"fullUrl":"urn:uuid:a5bec97c-d355-4ed8-8145-068cf9f9637f","resource":{"resourceType":"MessageHeader","id":"a5bec97c-d355-4ed8-8145-068cf9f9637f","meta":{"profile":["https://gematik.de/fhir/erp-servicerequest/StructureDefinition/erp-service-request-request-header"]},"eventCoding":{"system":"https://gematik.de/fhir/atf/CodeSystem/service-identifier-cs","code":"eRezept_Rezeptanforderung;Rezeptbestaetigung","display":"Bestätigung und Übermittlung eines ausgestellten Rezeptes"},"destination":[{"name":"Pflegeheim Immergrün","endpoint":"5-test-telematik-id-pflegeinrichtung"}],"sender":{"identifier":{"system":"https://gematik.de/fhir/sid/telematik-id","value":"5-test-telematik-id-praxis"},"display":"Praxis Hans Topp-Glücklich"},"source":{"name":"DeltaCare Inc.","software":"PraxisFix","version":"1.3.2","contact":{"system":"email","value":"issues@praxisfix-deltacare.de"},"endpoint":"https://deltacare.de/praxisfix/issues"},"responsible":{"reference":"urn:uuid:273eefa4-6663-4a1f-937a-c9ed2004be2e"},"focus":[{"reference":"urn:uuid:b5e0292a-a91d-4ca4-92e2-3b8e9e6a42e5"}]}},{"fullUrl":"urn:uuid:b5e0292a-a91d-4ca4-92e2-3b8e9e6a42e5","resource":{"resourceType":"ServiceRequest","id":"b5e0292a-a91d-4ca4-92e2-3b8e9e6a42e5","meta":{"profile":["https://gematik.de/fhir/erp-servicerequest/StructureDefinition/erp-service-request-prescription-request"]},"extension":[{"url":"https://gematik.de/fhir/erp-servicerequest/StructureDefinition/eprescription-token-ex","valueIdentifier":{"system":"https://gematik.de/fhir/erp/sid/NamingSystemEPrescriptionToken","value":"Task/160.819.358.313.793/$accept?ac=10bEcd8ACcC14f150c8cfAA7C6729Ead43360DeE2DC8aFa68f1575C0EbAfbAe7"}}],"identifier":[{"system":"https://gematik.de/fhir/erp-servicerequest/sid/RequestIdentifier","value":"fbe3a9c2-c776-43c1-932e-030a42b52482"},{"system":"https://gematik.de/fhir/erp-servicerequest/sid/ProcedureIdentifier","value":"961ebc16-7b4f-4bb7-946f-359ec19f0ced"}],"basedOn":[{"reference":"urn:uuid:f6ca73cc-7127-4b33-b768-19bbb49bf30f"}],"requisition":{"system":"https://gematik.de/fhir/erp-servicerequest/sid/ProcedureIdentifier","value":"961ebc16-7b4f-4bb7-946f-359ec19f0ced"},"status":"completed","intent":"order","priority":"urgent","code":{"coding":[{"system":"https://gematik.de/fhir/erp-servicerequest/CodeSystem/service-request-type-cs","code":"prescription-request"}]},"orderDetail":[{"coding":[{"system":"https://gematik.de/fhir/erp-servicerequest/CodeSystem/prescription-fullfillment-type-cs","code":"return-to-requester"}]}],"subject":{"reference":"Patient/e35cf417-f3e6-414d-a5c2-564fadbad1e9"},"occurrenceDateTime":"2024-11-01T15:18:54.242993+01:00","authoredOn":"2024-11-01T15:18:54.242995+01:00","requester":{"reference":"Organization/273eefa4-6663-4a1f-937a-c9ed2004be2e"},"performer":[{"identifier":{"system":"http://gematik.de/fhir/sid/KIM-Adresse","value":"practitioner@gluecklich.kim.telematik"}}],"reasonCode":[{"extension":[{"url":"https://gematik.de/fhir/erp-servicerequest/StructureDefinition/remaining-supply-ex","valueQuantity":{"value":7.0,"unit":"Stück"}}],"coding":[{"system":"https://gematik.de/fhir/erp-servicerequest/CodeSystem/medication-request-reason-cs","code":"exhausted-range"}],"text":"Medikament läuft am 31.01.2025 aus. Es sind noch 7 stk übrig."}],"reasonReference":[{"reference":"uuid:304e9cff-5077-4af9-847d-c39ab1ee53da"},{"reference":"uuid:a034e856-ff47-40fd-86cb-1a9bfb2c899b"}],"note":[{"time":"2024-11-01T15:18:54.243166+01:00","text":"Wird weiterhin benötigt, bitte um Verlängerung."}]}},{"fullUrl":"urn:uuid:f6ca73cc-7127-4b33-b768-19bbb49bf30f","resource":{"resourceType":"MedicationRequest","id":"f6ca73cc-7127-4b33-b768-19bbb49bf30f","meta":{"profile":["https://fhir.kbv.de/StructureDefinition/KBV_PR_ERP_Prescription|1.1.0"]},"extension":[{"url":"https://fhir.kbv.de/StructureDefinition/KBV_EX_ERP_EmergencyServicesFee","valueBoolean":false}],"status":"active","intent":"order","medicationReference":{"reference":"urn:uuid:0dd9f382-d313-451b-ac7b-375e9bb3b50a"},"subject":{"reference":"urn:uuid:e35cf417-f3e6-414d-a5c2-564fadbad1e9"},"authoredOn":"2024-11-01","requester":{"reference":"urn:uuid:d7b94663-d43a-4207-884b-fc28c51f9789"},"insurance":[{"reference":"urn:uuid:31c1df99-512a-4f2f-bc9a-c3c3ae82b8fc"}],"dosageInstruction":[{"extension":[{"url":"https://fhir.kbv.de/StructureDefinition/KBV_EX_ERP_DosageFlag","valueBoolean":true}],"text":"2mal tägl. 5ml"}]}},{"fullUrl":"urn:uuid:0dd9f382-d313-451b-ac7b-375e9bb3b50a","resource":{"resourceType":"Medication","id":"0dd9f382-d313-451b-ac7b-375e9bb3b50a","meta":{"profile":["https://fhir.kbv.de/StructureDefinition/KBV_PR_ERP_Medication_PZN|1.1.0"]},"extension":[{"url":"https://fhir.kbv.de/StructureDefinition/KBV_EX_Base_Medication_Type","valueCodeableConcept":{"coding":[{"system":"http://snomed.info/sct","version":"http://snomed.info/sct/900000000000207008/version/20220331","code":"763158003","display":"Medicinal product (product)"}]}},{"url":"https://fhir.kbv.de/StructureDefinition/KBV_EX_ERP_Medication_Category","valueCoding":{"system":"https://fhir.kbv.de/CodeSystem/KBV_CS_ERP_Medication_Category","code":"00"}},{"url":"https://fhir.kbv.de/StructureDefinition/KBV_EX_ERP_Medication_Vaccine","valueBoolean":false},{"url":"http://fhir.de/StructureDefinition/normgroesse","valueCode":"N1"}],"code":{"coding":[{"system":"http://fhir.de/CodeSystem/ifa/pzn","code":"08585997"}],"text":"Prospan® Hustensaft 100ml"},"form":{"coding":[{"system":"https://fhir.kbv.de/CodeSystem/KBV_CS_SFHIR_KBV_DARREICHUNGSFORM","code":"FLE"}]}}},{"fullUrl":"urn:uuid:d7b94663-d43a-4207-884b-fc28c51f9789","resource":{"resourceType":"Practitioner","id":"d7b94663-d43a-4207-884b-fc28c51f9789","meta":{"profile":["https://fhir.kbv.de/StructureDefinition/KBV_PR_FOR_Practitioner|1.1.0"]},"identifier":[{"type":{"coding":[{"system":"http://terminology.hl7.org/CodeSystem/v2-0203","code":"LANR"}]},"system":"https://fhir.kbv.de/NamingSystem/KBV_NS_Base_ANR","value":"838382202"},{"type":{"coding":[{"system":"http://terminology.hl7.org/CodeSystem/v2-0203","code":"PRN"}]},"system":"https://gematik.de/fhir/sid/telematik-id","value":"1-838382202"}],"name":[{"use":"official","family":"Topp-Glücklich","_family":{"extension":[{"url":"http://hl7.org/fhir/StructureDefinition/humanname-own-name","valueString":"Topp-Glücklich"}]},"given":["Hans"],"prefix":["Dr. med."]}],"qualification":[{"code":{"coding":[{"system":"https://fhir.kbv.de/CodeSystem/KBV_CS_FOR_Qualification_Type","code":"00"}],"text":"Arzt"}},{"code":{"coding":[{"system":"https://fhir.kbv.de/CodeSystem/KBV_CS_FOR_Berufsbezeichnung","code":"Berufsbezeichnung"}],"text":"Hausarzt"}}]}},{"fullUrl":"urn:uuid:e35cf417-f3e6-414d-a5c2-564fadbad1e9","resource":{"resourceType":"Patient","id":"e35cf417-f3e6-414d-a5c2-564fadbad1e9","meta":{"profile":["https://gematik.de/fhir/erp-servicerequest/StructureDefinition/erp-service-request-patient"]},"identifier":[{"system":"http://fhir.de/sid/gkv/kvid-10","value":"X234567890"}],"name":[{"use":"official","family":"Königsstein","_family":{"extension":[{"url":"http://hl7.org/fhir/StructureDefinition/humanname-own-name","valueString":"Königsstein"}]},"given":["Ludger"]}],"birthDate":"1935-06-22","address":[{"type":"both","line":["Musterstr. 1"],"_line":[{"extension":[{"url":"http://hl7.org/fhir/StructureDefinition/iso21090-ADXP-houseNumber","valueString":"1"},{"url":"http://hl7.org/fhir/StructureDefinition/iso21090-ADXP-streetName","valueString":"Musterstr."}]}],"city":"Berlin","postalCode":"10623"}]}},{"fullUrl":"urn:uuid:31c1df99-512a-4f2f-bc9a-c3c3ae82b8fc","resource":{"resourceType":"Coverage","id":"31c1df99-512a-4f2f-bc9a-c3c3ae82b8fc","meta":{"profile":["https://fhir.kbv.de/StructureDefinition/KBV_PR_FOR_Coverage|1.1.0"]},"extension":[{"url":"http://fhir.de/StructureDefinition/gkv/besondere-personengruppe","valueCoding":{"system":"https://fhir.kbv.de/CodeSystem/KBV_CS_SFHIR_KBV_PERSONENGRUPPE","code":"00"}},{"url":"http://fhir.de/StructureDefinition/gkv/dmp-kennzeichen","valueCoding":{"system":"https://fhir.kbv.de/CodeSystem/KBV_CS_SFHIR_KBV_DMP","code":"00"}},{"url":"http://fhir.de/StructureDefinition/gkv/wop","valueCoding":{"system":"https://fhir.kbv.de/CodeSystem/KBV_CS_SFHIR_ITA_WOP","code":"72"}},{"url":"http://fhir.de/StructureDefinition/gkv/versichertenart","valueCoding":{"system":"https://fhir.kbv.de/CodeSystem/KBV_CS_SFHIR_KBV_VERSICHERTENSTATUS","code":"3"}}],"status":"active","type":{"coding":[{"system":"http://fhir.de/CodeSystem/versicherungsart-de-basis","code":"GKV"}]},"beneficiary":{"reference":"urn:uuid:Patient/Example-Patient"},"period":{"end":"2040-04-01"},"payor":[{"identifier":{"system":"http://fhir.de/sid/arge-ik/iknr","value":"108416214"},"display":"AOK Bayern Die Gesundh."}]}},{"fullUrl":"urn:uuid:273eefa4-6663-4a1f-937a-c9ed2004be2e","resource":{"resourceType":"Organization","id":"273eefa4-6663-4a1f-937a-c9ed2004be2e","meta":{"profile":["https://gematik.de/fhir/erp-servicerequest/StructureDefinition/erp-service-request-organization"],"tag":[{"system":"https://gematik.de/fhir/directory/CodeSystem/Origin","code":"owner"}]},"identifier":[{"system":"https://gematik.de/fhir/sid/telematik-id","value":"1-031234567"}],"name":"Pflegeheim Immergrün","address":[{"type":"both","line":["Musterstr. 2"],"city":"Berlin","postalCode":"10623"}],"contact":[{"telecom":[{"system":"phone","value":"0301234567"},{"system":"email","value":"pflegeheim.immergrün.arzt@sana-pflegeheime.kim.telematik"}]}]}}]}