{"resourceType":"Bundle","id":"d8f63775-923f-4a99-8245-97ce9bac2331","meta":{"profile":["https://gematik.de/fhir/erp-servicerequest/StructureDefinition/erp-service-request-message-container"]},"identifier":{"system":"urn:ietf:rfc:3986","value":"urn:uuid:d8f63775-923f-4a99-8245-97ce9bac2331"},"type":"message","timestamp":"2024-10-30T14:38:31.857408+00:00","entry":[{"fullUrl":"urn:uuid:1c763b1c-3b4f-48f3-a613-9556febaef2f","resource":{"resourceType":"MessageHeader","id":"1c763b1c-3b4f-48f3-a613-9556febaef2f","meta":{"profile":["https://gematik.de/fhir/erp-servicerequest/StructureDefinition/erp-service-request-request-header"]},"eventCoding":{"system":"https://gematik.de/fhir/atf/CodeSystem/service-identifier-cs","code":"eRezept_Rezeptanforderung;Rezeptbestaetigung","display":"Bestätigung und Übermittlung eines ausgestellten Rezeptes"},"destination":[{"name":"Pflegeheim Immergrün","endpoint":"5-test-telematik-id-pflegeinrichtung"}],"sender":{"identifier":{"system":"https://gematik.de/fhir/sid/telematik-id","value":"5-test-telematik-id-praxis"},"display":"Praxis Hans Topp-Glücklich"},"source":{"name":"DeltaCare Inc.","software":"PraxisFix","version":"1.3.2","contact":{"system":"email","value":"issues@praxisfix-deltacare.de"},"endpoint":"https://deltacare.de/praxisfix/issues"},"responsible":{"reference":"urn:uuid:7d96144f-c5bf-40b8-9272-fcb3fa5ce3c2"},"focus":[{"reference":"urn:uuid:99124356-d833-4d93-96ae-b0e578458c45"}]}},{"fullUrl":"urn:uuid:99124356-d833-4d93-96ae-b0e578458c45","resource":{"resourceType":"ServiceRequest","id":"99124356-d833-4d93-96ae-b0e578458c45","meta":{"profile":["https://gematik.de/fhir/erp-servicerequest/StructureDefinition/erp-service-request-prescription-request"]},"extension":[{"url":"https://gematik.de/fhir/erp-servicerequest/StructureDefinition/eprescription-token-ex","valueIdentifier":{"system":"https://gematik.de/fhir/erp/sid/NamingSystemEPrescriptionToken","value":"Task/160.106.778.696.279/$accept?ac=9aAdee2Bb9cEa6ADf49120fe9f3a6C7d3B8d0bfD7Ef3D02d0dE89d9Dcdc1cBF7"}}],"identifier":[{"system":"https://gematik.de/fhir/erp-servicerequest/sid/RequestIdentifier","value":"a6dabbb7-be81-4c55-add9-aa30f070d199"},{"system":"https://gematik.de/fhir/erp-servicerequest/sid/ProcedureIdentifier","value":"b4da5f81-e5df-48e7-80ca-f2d3dab79cb6"}],"basedOn":[{"reference":"urn:uuid:c0146e6a-8aad-49ec-bd60-eb1664a30986"}],"requisition":{"system":"https://gematik.de/fhir/erp-servicerequest/sid/ProcedureIdentifier","value":"b4da5f81-e5df-48e7-80ca-f2d3dab79cb6"},"status":"completed","intent":"order","code":{"coding":[{"system":"https://gematik.de/fhir/erp-servicerequest/CodeSystem/service-request-type-cs","code":"prescription-request"}]},"orderDetail":[{"coding":[{"system":"https://gematik.de/fhir/erp-servicerequest/CodeSystem/prescription-fullfillment-type-cs","code":"return-to-requester"}]}],"subject":{"reference":"urn:uuid:f91add65-c7a5-4010-8d11-993f7a8a0d33"},"occurrenceDateTime":"2024-10-30T15:38:30.657831+01:00","authoredOn":"2024-10-30T15:38:30.657836+01:00","requester":{"reference":"urn:uuid:7d96144f-c5bf-40b8-9272-fcb3fa5ce3c2"},"performer":[{"identifier":{"system":"http://gematik.de/fhir/sid/KIM-Adresse","value":"practitioner@gluecklich.kim.telematik"}}],"reasonCode":[{"coding":[{"system":"https://gematik.de/fhir/erp-servicerequest/CodeSystem/medication-request-reason-cs","code":"medication-runs-out"}]}],"reasonReference":[{"reference":"urn:uuid:602ecf1d-4a8a-4580-9a9f-071f9a84b165"},{"reference":"urn:uuid:4f9c11c7-e836-46be-aea5-91868e4538d4"}],"note":[{"text":"Medikament läuft am 31.01.2025 aus. Es sind noch 7 stk übrig."}]}},{"fullUrl":"urn:uuid:c0146e6a-8aad-49ec-bd60-eb1664a30986","resource":{"resourceType":"MedicationRequest","id":"c0146e6a-8aad-49ec-bd60-eb1664a30986","meta":{"profile":["https://fhir.kbv.de/StructureDefinition/KBV_PR_ERP_Prescription|1.1.0"]},"extension":[{"url":"https://fhir.kbv.de/StructureDefinition/KBV_EX_ERP_EmergencyServicesFee","valueBoolean":false}],"status":"active","intent":"order","medicationReference":{"reference":"urn:uuid:c605b078-8cc4-40e7-8d7b-af0d26763ebd"},"subject":{"reference":"urn:uuid:7d7ea715-32a7-4043-8ca6-75e2d7277a9c"},"authoredOn":"2024-10-30","requester":{"reference":"urn:uuid:4a910a93-bcce-446a-b50b-29203f4768e7"},"insurance":[{"reference":"urn:uuid:ec0889e4-feea-468d-9e58-18f5fb3d463e"}],"dosageInstruction":[{"extension":[{"url":"https://fhir.kbv.de/StructureDefinition/KBV_EX_ERP_DosageFlag","valueBoolean":true}],"text":"2mal tägl. 5ml"}]}},{"fullUrl":"urn:uuid:c605b078-8cc4-40e7-8d7b-af0d26763ebd","resource":{"resourceType":"Medication","id":"c605b078-8cc4-40e7-8d7b-af0d26763ebd","meta":{"profile":["https://fhir.kbv.de/StructureDefinition/KBV_PR_ERP_Medication_PZN|1.1.0"]},"extension":[{"url":"https://fhir.kbv.de/StructureDefinition/KBV_EX_Base_Medication_Type","valueCodeableConcept":{"coding":[{"system":"http://snomed.info/sct","version":"http://snomed.info/sct/900000000000207008/version/20220331","code":"763158003","display":"Medicinal product (product)"}]}},{"url":"https://fhir.kbv.de/StructureDefinition/KBV_EX_ERP_Medication_Category","valueCoding":{"system":"https://fhir.kbv.de/CodeSystem/KBV_CS_ERP_Medication_Category","code":"00"}},{"url":"https://fhir.kbv.de/StructureDefinition/KBV_EX_ERP_Medication_Vaccine","valueBoolean":false},{"url":"http://fhir.de/StructureDefinition/normgroesse","valueCode":"N1"}],"code":{"coding":[{"system":"http://fhir.de/CodeSystem/ifa/pzn","code":"08585997"}],"text":"Prospan® Hustensaft 100ml"},"form":{"coding":[{"system":"https://fhir.kbv.de/CodeSystem/KBV_CS_SFHIR_KBV_DARREICHUNGSFORM","code":"FLE"}]}}},{"fullUrl":"urn:uuid:4a910a93-bcce-446a-b50b-29203f4768e7","resource":{"resourceType":"Practitioner","id":"4a910a93-bcce-446a-b50b-29203f4768e7","meta":{"profile":["https://fhir.kbv.de/StructureDefinition/KBV_PR_FOR_Practitioner|1.1.0"]},"identifier":[{"type":{"coding":[{"system":"http://terminology.hl7.org/CodeSystem/v2-0203","code":"LANR"}]},"system":"https://fhir.kbv.de/NamingSystem/KBV_NS_Base_ANR","value":"838382202"},{"type":{"coding":[{"system":"http://terminology.hl7.org/CodeSystem/v2-0203","code":"PRN"}]},"system":"https://gematik.de/fhir/sid/telematik-id","value":"1-838382202"}],"name":[{"use":"official","family":"Topp-Glücklich","_family":{"extension":[{"url":"http://hl7.org/fhir/StructureDefinition/humanname-own-name","valueString":"Topp-Glücklich"}]},"given":["Hans"],"prefix":["Dr. med."]}],"qualification":[{"code":{"coding":[{"system":"https://fhir.kbv.de/CodeSystem/KBV_CS_FOR_Qualification_Type","code":"00"}],"text":"Arzt"}},{"code":{"coding":[{"system":"https://fhir.kbv.de/CodeSystem/KBV_CS_FOR_Berufsbezeichnung","code":"Berufsbezeichnung"}],"text":"Hausarzt"}}]}},{"fullUrl":"urn:uuid:7d7ea715-32a7-4043-8ca6-75e2d7277a9c","resource":{"resourceType":"Patient","id":"7d7ea715-32a7-4043-8ca6-75e2d7277a9c","meta":{"profile":["https://fhir.kbv.de/StructureDefinition/KBV_PR_FOR_Patient|1.1.0"]},"identifier":[{"type":{"coding":[{"system":"http://fhir.de/CodeSystem/identifier-type-de-basis","code":"GKV"}]},"system":"http://fhir.de/sid/gkv/kvid-10","value":"X234567890"}],"name":[{"use":"official","family":"Königsstein","_family":{"extension":[{"url":"http://hl7.org/fhir/StructureDefinition/humanname-own-name","valueString":"Königsstein"}]},"given":["Ludger"]}],"birthDate":"1935-06-22","address":[{"type":"both","line":["Musterstr. 1"],"_line":[{"extension":[{"url":"http://hl7.org/fhir/StructureDefinition/iso21090-ADXP-houseNumber","valueString":"1"},{"url":"http://hl7.org/fhir/StructureDefinition/iso21090-ADXP-streetName","valueString":"Musterstr."}]}],"city":"Berlin","postalCode":"10623"}]}},{"fullUrl":"urn:uuid:ec0889e4-feea-468d-9e58-18f5fb3d463e","resource":{"resourceType":"Coverage","id":"ec0889e4-feea-468d-9e58-18f5fb3d463e","meta":{"profile":["https://fhir.kbv.de/StructureDefinition/KBV_PR_FOR_Coverage|1.1.0"]},"extension":[{"url":"http://fhir.de/StructureDefinition/gkv/besondere-personengruppe","valueCoding":{"system":"https://fhir.kbv.de/CodeSystem/KBV_CS_SFHIR_KBV_PERSONENGRUPPE","code":"00"}},{"url":"http://fhir.de/StructureDefinition/gkv/dmp-kennzeichen","valueCoding":{"system":"https://fhir.kbv.de/CodeSystem/KBV_CS_SFHIR_KBV_DMP","code":"00"}},{"url":"http://fhir.de/StructureDefinition/gkv/wop","valueCoding":{"system":"https://fhir.kbv.de/CodeSystem/KBV_CS_SFHIR_ITA_WOP","code":"72"}},{"url":"http://fhir.de/StructureDefinition/gkv/versichertenart","valueCoding":{"system":"https://fhir.kbv.de/CodeSystem/KBV_CS_SFHIR_KBV_VERSICHERTENSTATUS","code":"3"}}],"status":"active","type":{"coding":[{"system":"http://fhir.de/CodeSystem/versicherungsart-de-basis","code":"GKV"}]},"beneficiary":{"reference":"urn:uuid:Patient/Example-Patient"},"period":{"end":"2040-04-01"},"payor":[{"identifier":{"system":"http://fhir.de/sid/arge-ik/iknr","value":"108416214"},"display":"AOK Bayern Die Gesundh."}]}},{"fullUrl":"urn:uuid:7d96144f-c5bf-40b8-9272-fcb3fa5ce3c2","resource":{"resourceType":"Organization","id":"7d96144f-c5bf-40b8-9272-fcb3fa5ce3c2","meta":{"profile":["https://gematik.de/fhir/erp-servicerequest/StructureDefinition/erp-service-request-organization"]},"identifier":[{"type":{"coding":[{"system":"https://gematik.de/fhir/directory/CodeSystem/EndpointDirectoryConnectionType","code":"kim-2.0"}]},"system":"http://gematik.de/fhir/sid/KIM-Adresse","value":"pflegeheim.immergrün.arzt@sana-pflegeheime.kim.telematik"},{"type":{"coding":[{"system":"http://terminology.hl7.org/CodeSystem/v2-0203","code":"PRN"}]},"system":"https://gematik.de/fhir/sid/telematik-id","value":"1-031234567"},{"type":{"coding":[{"system":"http://terminology.hl7.org/CodeSystem/v2-0203","code":"BSNR"}]},"system":"https://fhir.kbv.de/NamingSystem/KBV_NS_Base_BSNR","value":"031234567"}],"name":"Pflegeheim Immergrün","telecom":[{"system":"phone","value":"0301234567"}],"address":[{"type":"both","line":["Musterstr. 2"],"_line":[{"extension":[{"url":"http://hl7.org/fhir/StructureDefinition/iso21090-ADXP-houseNumber","valueString":"2"},{"url":"http://hl7.org/fhir/StructureDefinition/iso21090-ADXP-streetName","valueString":"Musterstr."}]}],"city":"Berlin","postalCode":"10623"}]}},{"fullUrl":"urn:uuid:99124356-d833-4d93-96ae-b0e578458c45","resource":{"resourceType":"ServiceRequest","id":"99124356-d833-4d93-96ae-b0e578458c45","meta":{"profile":["https://gematik.de/fhir/erp-servicerequest/StructureDefinition/erp-service-request-prescription-request"]},"extension":[{"url":"https://gematik.de/fhir/erp-servicerequest/StructureDefinition/eprescription-token-ex","valueIdentifier":{"system":"https://gematik.de/fhir/erp/sid/NamingSystemEPrescriptionToken","value":"Task/160.106.778.696.279/$accept?ac=9aAdee2Bb9cEa6ADf49120fe9f3a6C7d3B8d0bfD7Ef3D02d0dE89d9Dcdc1cBF7"}}],"identifier":[{"system":"https://gematik.de/fhir/erp-servicerequest/sid/RequestIdentifier","value":"a6dabbb7-be81-4c55-add9-aa30f070d199"},{"system":"https://gematik.de/fhir/erp-servicerequest/sid/ProcedureIdentifier","value":"b4da5f81-e5df-48e7-80ca-f2d3dab79cb6"}],"basedOn":[{"reference":"urn:uuid:c0146e6a-8aad-49ec-bd60-eb1664a30986"}],"requisition":{"system":"https://gematik.de/fhir/erp-servicerequest/sid/ProcedureIdentifier","value":"b4da5f81-e5df-48e7-80ca-f2d3dab79cb6"},"status":"completed","intent":"order","code":{"coding":[{"system":"https://gematik.de/fhir/erp-servicerequest/CodeSystem/service-request-type-cs","code":"prescription-request"}]},"orderDetail":[{"coding":[{"system":"https://gematik.de/fhir/erp-servicerequest/CodeSystem/prescription-fullfillment-type-cs","code":"return-to-requester"}]}],"subject":{"reference":"urn:uuid:f91add65-c7a5-4010-8d11-993f7a8a0d33"},"occurrenceDateTime":"2024-10-30T15:38:30.657831+01:00","authoredOn":"2024-10-30T15:38:30.657836+01:00","requester":{"reference":"urn:uuid:7d96144f-c5bf-40b8-9272-fcb3fa5ce3c2"},"performer":[{"identifier":{"system":"http://gematik.de/fhir/sid/KIM-Adresse","value":"practitioner@gluecklich.kim.telematik"}}],"reasonCode":[{"coding":[{"system":"https://gematik.de/fhir/erp-servicerequest/CodeSystem/medication-request-reason-cs","code":"medication-runs-out"}]}],"reasonReference":[{"reference":"urn:uuid:602ecf1d-4a8a-4580-9a9f-071f9a84b165"},{"reference":"urn:uuid:4f9c11c7-e836-46be-aea5-91868e4538d4"}],"note":[{"text":"Medikament läuft am 31.01.2025 aus. Es sind noch 7 stk übrig."}]}}]}