<?xml version='1.0' encoding='utf-8'?>
<Bundle xmlns="http://hl7.org/fhir"><id value="4c5bba43-4f67-48a2-a3f0-4827fa338412"/><meta><profile value="https://gematik.de/fhir/erp-servicerequest/StructureDefinition/erp-service-request-message-container"/></meta><identifier><system value="urn:ietf:rfc:3986"/><value value="urn:uuid:4c5bba43-4f67-48a2-a3f0-4827fa338412"/></identifier><type value="message"/><timestamp value="2024-11-05T12:56:21.202524+00:00"/><entry><fullUrl value="urn:uuid:c1a32d75-6838-4c09-b4cd-d6cc379ed43b"/><resource><MessageHeader><id value="c1a32d75-6838-4c09-b4cd-d6cc379ed43b"/><meta><profile value="https://gematik.de/fhir/erp-servicerequest/StructureDefinition/erp-service-request-request-header"/></meta><eventCoding><system value="https://gematik.de/fhir/atf/CodeSystem/service-identifier-cs"/><code value="eRezept_Rezeptanforderung;Abgabeanfrage"/><display value="Anfrage zur Erfüllung eines Rezeptes und Abgabe des Medikaments"/></eventCoding><destination><name value="Test Apotheke"/><endpoint value="5-test-telematik-id-apotheke"/></destination><sender><identifier><system value="https://gematik.de/fhir/sid/telematik-id"/><value value="5-test-telematik-id-pflegeinrichtung"/></identifier><display value="Pflegeheim Immergrün"/></sender><source><name value="HealthCare-Source"/><software value="HealthCare-Software"/><version value="1.0.0"/><contact><system value="email"/><value value="info@hcs.email"/></contact><endpoint value="mailto:healthcare-service@test.kim.de"/></source><responsible><reference value="urn:uuid:acb8f54e-b6f5-405b-99fe-0d7ff4f006d6"/></responsible><focus><reference value="urn:uuid:01d2a851-0f1a-4eed-90d7-13e720ac45e6"/></focus></MessageHeader></resource></entry><entry><fullUrl value="urn:uuid:01d2a851-0f1a-4eed-90d7-13e720ac45e6"/><resource><ServiceRequest><id value="01d2a851-0f1a-4eed-90d7-13e720ac45e6"/><meta><profile value="https://gematik.de/fhir/erp-servicerequest/StructureDefinition/erp-service-request-dispense-request"/></meta><extension url="https://gematik.de/fhir/erp-servicerequest/StructureDefinition/eprescription-token-ex"><valueIdentifier><system value="https://gematik.de/fhir/erp/sid/NamingSystemEPrescriptionToken"/><value value="Task/160.980.321.601.199/$accept?ac=C7f29E51c4D6a51B2aab48d3c136E0080EdEFBeBEeC58209AB2FaC46BdB8e2A5"/></valueIdentifier></extension><identifier><system value="https://gematik.de/fhir/erp-servicerequest/sid/RequestIdentifier"/><value value="e10d305c-9c0b-4ebc-89e6-daeddeb40ef7"/></identifier><identifier><system value="https://gematik.de/fhir/erp-servicerequest/sid/ProcedureIdentifier"/><value value="4119f727-ced5-4519-95b6-38be3d5c2b1d"/></identifier><basedOn><reference value="uuid:4388b4cc-d566-4a32-9c69-ff6ef1a235f6"/></basedOn><requisition><system value="https://gematik.de/fhir/erp-servicerequest/sid/ProcedureIdentifier"/><value value="4119f727-ced5-4519-95b6-38be3d5c2b1d"/></requisition><status value="active"/><intent value="filler-order"/><priority value="urgent"/><code><coding><system value="https://gematik.de/fhir/erp-servicerequest/CodeSystem/service-request-type-cs"/><code value="dispense-request"/></coding></code><subject><reference value="Patient/f4fcf736-8216-4bfd-9116-f8ee2af22f7e"/></subject><occurrenceDateTime value="2024-11-05T13:56:21.202237+01:00"/><authoredOn value="2024-11-05T13:56:21.202244+01:00"/><requester><reference value="Organization/28bb247f-d226-4a29-8277-93b92e932b71"/></requester><performer><identifier><system value="http://gematik.de/fhir/sid/KIM-Adresse"/><value value="Test Apotheke"/></identifier></performer><note><time value="2024-11-05T13:56:21.202315+01:00"/><text value="Bitte wie üblich zur Abholung bereitlegen."/></note></ServiceRequest></resource></entry><entry><fullUrl value="urn:uuid:f4fcf736-8216-4bfd-9116-f8ee2af22f7e"/><resource><Patient><id value="f4fcf736-8216-4bfd-9116-f8ee2af22f7e"/><meta><profile value="https://gematik.de/fhir/erp-servicerequest/StructureDefinition/erp-service-request-patient"/></meta><identifier><system value="http://fhir.de/sid/gkv/kvid-10"/><value value="X234567890"/></identifier><name><use value="official"/><family value="Königsstein"><extension url="http://hl7.org/fhir/StructureDefinition/humanname-own-name"><valueString value="Königsstein"/></extension></family><given value="Ludger"/></name><birthDate value="1935-06-22"/><address><type value="both"/><line value="Musterstr. 1"><extension url="http://hl7.org/fhir/StructureDefinition/iso21090-ADXP-houseNumber"><valueString value="1"/></extension><extension url="http://hl7.org/fhir/StructureDefinition/iso21090-ADXP-streetName"><valueString value="Musterstr."/></extension></line><city value="Berlin"/><postalCode value="10623"/></address></Patient></resource></entry><entry><fullUrl value="urn:uuid:acb8f54e-b6f5-405b-99fe-0d7ff4f006d6"/><resource><Organization><id value="acb8f54e-b6f5-405b-99fe-0d7ff4f006d6"/><meta><profile value="https://gematik.de/fhir/erp-servicerequest/StructureDefinition/erp-service-request-organization"/><tag><system value="https://gematik.de/fhir/directory/CodeSystem/Origin"/><code value="owner"/></tag></meta><identifier><system value="https://gematik.de/fhir/sid/telematik-id"/><value value="1-031234567"/></identifier><name value="Pflegeheim Immergrün"/><address><type value="both"/><line value="Musterstr. 2"/><city value="Berlin"/><postalCode value="10623"/></address><contact><telecom><system value="phone"/><value value="0301234567"/></telecom><telecom><system value="email"/><value value="pflegeheim.immergrün.arzt@sana-pflegeheime.kim.telematik"/></telecom></contact></Organization></resource></entry></Bundle>