<?xml version='1.0' encoding='utf-8'?>
<Bundle xmlns="http://hl7.org/fhir"><id value="9fd5e063-ef7e-4bd8-af26-f03f4b9c840f"/><meta><profile value="https://gematik.de/fhir/erp-servicerequest/StructureDefinition/erp-service-request-message-container"/></meta><identifier><system value="urn:ietf:rfc:3986"/><value value="urn:uuid:9fd5e063-ef7e-4bd8-af26-f03f4b9c840f"/></identifier><type value="message"/><timestamp value="2024-10-31T14:53:02.566774+00:00"/><entry><fullUrl value="urn:uuid:c2a01881-0d4c-4f90-b80c-b95769a19181"/><resource><MessageHeader><id value="c2a01881-0d4c-4f90-b80c-b95769a19181"/><meta><profile value="https://gematik.de/fhir/erp-servicerequest/StructureDefinition/erp-service-request-request-header"/></meta><eventCoding><system value="https://gematik.de/fhir/atf/CodeSystem/service-identifier-cs"/><code value="eRezept_Rezeptanforderung;Rezeptbestaetigung"/><display value="Bestätigung und Übermittlung eines ausgestellten Rezeptes"/></eventCoding><destination><name value="Pflegeheim Immergrün"/><endpoint value="5-test-telematik-id-pflegeinrichtung"/></destination><sender><identifier><system value="https://gematik.de/fhir/sid/telematik-id"/><value value="5-test-telematik-id-praxis"/></identifier><display value="Praxis Hans Topp-Glücklich"/></sender><source><name value="DeltaCare Inc."/><software value="PraxisFix"/><version value="1.3.2"/><contact><system value="email"/><value value="issues@praxisfix-deltacare.de"/></contact><endpoint value="https://deltacare.de/praxisfix/issues"/></source><responsible><reference value="urn:uuid:258ad91c-45bd-4aa0-a161-9e84187c1df6"/></responsible><focus><reference value="urn:uuid:0455ff78-ff45-4c31-8dc4-9415844ad543"/></focus></MessageHeader></resource></entry><entry><fullUrl value="urn:uuid:0455ff78-ff45-4c31-8dc4-9415844ad543"/><resource><ServiceRequest><id value="0455ff78-ff45-4c31-8dc4-9415844ad543"/><meta><profile value="https://gematik.de/fhir/erp-servicerequest/StructureDefinition/erp-service-request-prescription-request"/></meta><extension url="https://gematik.de/fhir/erp-servicerequest/StructureDefinition/eprescription-token-ex"><valueIdentifier><system value="https://gematik.de/fhir/erp/sid/NamingSystemEPrescriptionToken"/><value value="Task/160.308.184.642.434/$accept?ac=EF4A9cc4ef0fA87d4c8d1DCCeDB8E0CCEEc0aeB8Ac1Ad452Aeeb4AD5A5Fa20c6"/></valueIdentifier></extension><identifier><system value="https://gematik.de/fhir/erp-servicerequest/sid/RequestIdentifier"/><value value="f1574863-2bd9-4018-a3ff-27cc01f875ad"/></identifier><identifier><system value="https://gematik.de/fhir/erp-servicerequest/sid/ProcedureIdentifier"/><value value="42226d12-5c28-44a5-b3c0-293a106ea23b"/></identifier><basedOn><reference value="urn:uuid:819d6fcd-def7-49a4-bb9b-49dbee04ac1f"/></basedOn><requisition><system value="https://gematik.de/fhir/erp-servicerequest/sid/ProcedureIdentifier"/><value value="42226d12-5c28-44a5-b3c0-293a106ea23b"/></requisition><status value="completed"/><intent value="order"/><priority value="urgent"/><code><coding><system value="https://gematik.de/fhir/erp-servicerequest/CodeSystem/service-request-type-cs"/><code value="prescription-request"/></coding></code><orderDetail><coding><system value="https://gematik.de/fhir/erp-servicerequest/CodeSystem/prescription-fullfillment-type-cs"/><code value="return-to-requester"/></coding></orderDetail><subject><reference value="Patient/bbfbab76-fd15-422f-a9eb-9d54dbc124a5"/></subject><occurrenceDateTime value="2024-10-31T15:53:01.344890+01:00"/><authoredOn value="2024-10-31T15:53:01.344893+01:00"/><requester><reference value="Organization/258ad91c-45bd-4aa0-a161-9e84187c1df6"/></requester><performer><identifier><system value="http://gematik.de/fhir/sid/KIM-Adresse"/><value value="practitioner@gluecklich.kim.telematik"/></identifier></performer><reasonCode><extension url="https://gematik.de/fhir/erp-servicerequest/StructureDefinition/remaining-supply-ex"><valueQuantity><value value="7.0"/><unit value="Stück"/></valueQuantity></extension><coding><system value="https://gematik.de/fhir/erp-servicerequest/CodeSystem/medication-request-reason-cs"/><code value="exhausted-range"/></coding><text value="Medikament läuft am 31.01.2025 aus. Es sind noch 7 stk übrig."/></reasonCode><reasonReference><reference value="uuid:9c2af0fc-41cd-404b-aef8-dbad3fd59169"/></reasonReference><reasonReference><reference value="uuid:d3737948-c759-4885-88cd-40b9af4a4341"/></reasonReference><note><time value="2024-10-31T15:53:01.345080+01:00"/><text value="Wird weiterhin benötigt, bitte um Verlängerung."/></note></ServiceRequest></resource></entry><entry><fullUrl value="urn:uuid:819d6fcd-def7-49a4-bb9b-49dbee04ac1f"/><resource><MedicationRequest><id value="819d6fcd-def7-49a4-bb9b-49dbee04ac1f"/><meta><profile value="https://fhir.kbv.de/StructureDefinition/KBV_PR_ERP_Prescription|1.1.0"/></meta><extension url="https://fhir.kbv.de/StructureDefinition/KBV_EX_ERP_EmergencyServicesFee"><valueBoolean value="false"/></extension><status value="active"/><intent value="order"/><medicationReference><reference value="urn:uuid:9517312b-4d57-4211-80b5-1099311d3a88"/></medicationReference><subject><reference value="urn:uuid:bbfbab76-fd15-422f-a9eb-9d54dbc124a5"/></subject><authoredOn value="2024-10-31"/><requester><reference value="urn:uuid:65aacb7b-497f-4423-a78c-c1a5bfd97b63"/></requester><insurance><reference value="urn:uuid:fcfcf7ac-c8e3-4bae-b270-74ad67cea4a1"/></insurance><dosageInstruction><extension url="https://fhir.kbv.de/StructureDefinition/KBV_EX_ERP_DosageFlag"><valueBoolean value="true"/></extension><text value="2mal tägl. 5ml"/></dosageInstruction></MedicationRequest></resource></entry><entry><fullUrl value="urn:uuid:9517312b-4d57-4211-80b5-1099311d3a88"/><resource><Medication><id value="9517312b-4d57-4211-80b5-1099311d3a88"/><meta><profile value="https://fhir.kbv.de/StructureDefinition/KBV_PR_ERP_Medication_PZN|1.1.0"/></meta><extension url="https://fhir.kbv.de/StructureDefinition/KBV_EX_Base_Medication_Type"><valueCodeableConcept><coding><system value="http://snomed.info/sct"/><version value="http://snomed.info/sct/900000000000207008/version/20220331"/><code value="763158003"/><display value="Medicinal product (product)"/></coding></valueCodeableConcept></extension><extension url="https://fhir.kbv.de/StructureDefinition/KBV_EX_ERP_Medication_Category"><valueCoding><system value="https://fhir.kbv.de/CodeSystem/KBV_CS_ERP_Medication_Category"/><code value="00"/></valueCoding></extension><extension url="https://fhir.kbv.de/StructureDefinition/KBV_EX_ERP_Medication_Vaccine"><valueBoolean value="false"/></extension><extension url="http://fhir.de/StructureDefinition/normgroesse"><valueCode value="N1"/></extension><code><coding><system value="http://fhir.de/CodeSystem/ifa/pzn"/><code value="08585997"/></coding><text value="Prospan® Hustensaft 100ml"/></code><form><coding><system value="https://fhir.kbv.de/CodeSystem/KBV_CS_SFHIR_KBV_DARREICHUNGSFORM"/><code value="FLE"/></coding></form></Medication></resource></entry><entry><fullUrl value="urn:uuid:65aacb7b-497f-4423-a78c-c1a5bfd97b63"/><resource><Practitioner><id value="65aacb7b-497f-4423-a78c-c1a5bfd97b63"/><meta><profile value="https://fhir.kbv.de/StructureDefinition/KBV_PR_FOR_Practitioner|1.1.0"/></meta><identifier><type><coding><system value="http://terminology.hl7.org/CodeSystem/v2-0203"/><code value="LANR"/></coding></type><system value="https://fhir.kbv.de/NamingSystem/KBV_NS_Base_ANR"/><value value="838382202"/></identifier><identifier><type><coding><system value="http://terminology.hl7.org/CodeSystem/v2-0203"/><code value="PRN"/></coding></type><system value="https://gematik.de/fhir/sid/telematik-id"/><value value="1-838382202"/></identifier><name><use value="official"/><family value="Topp-Glücklich"><extension url="http://hl7.org/fhir/StructureDefinition/humanname-own-name"><valueString value="Topp-Glücklich"/></extension></family><given value="Hans"/><prefix value="Dr. med."/></name><qualification><code><coding><system value="https://fhir.kbv.de/CodeSystem/KBV_CS_FOR_Qualification_Type"/><code value="00"/></coding><text value="Arzt"/></code></qualification><qualification><code><coding><system value="https://fhir.kbv.de/CodeSystem/KBV_CS_FOR_Berufsbezeichnung"/><code value="Berufsbezeichnung"/></coding><text value="Hausarzt"/></code></qualification></Practitioner></resource></entry><entry><fullUrl value="urn:uuid:bbfbab76-fd15-422f-a9eb-9d54dbc124a5"/><resource><Patient><id value="bbfbab76-fd15-422f-a9eb-9d54dbc124a5"/><meta><profile value="https://gematik.de/fhir/erp-servicerequest/StructureDefinition/erp-service-request-patient"/></meta><identifier><system value="http://fhir.de/sid/gkv/kvid-10"/><value value="X234567890"/></identifier><name><use value="official"/><family value="Königsstein"><extension url="http://hl7.org/fhir/StructureDefinition/humanname-own-name"><valueString value="Königsstein"/></extension></family><given value="Ludger"/></name><birthDate value="1935-06-22"/><address><type value="both"/><line value="Musterstr. 1"><extension url="http://hl7.org/fhir/StructureDefinition/iso21090-ADXP-houseNumber"><valueString value="1"/></extension><extension url="http://hl7.org/fhir/StructureDefinition/iso21090-ADXP-streetName"><valueString value="Musterstr."/></extension></line><city value="Berlin"/><postalCode value="10623"/></address></Patient></resource></entry><entry><fullUrl value="urn:uuid:fcfcf7ac-c8e3-4bae-b270-74ad67cea4a1"/><resource><Coverage><id value="fcfcf7ac-c8e3-4bae-b270-74ad67cea4a1"/><meta><profile value="https://fhir.kbv.de/StructureDefinition/KBV_PR_FOR_Coverage|1.1.0"/></meta><extension url="http://fhir.de/StructureDefinition/gkv/besondere-personengruppe"><valueCoding><system value="https://fhir.kbv.de/CodeSystem/KBV_CS_SFHIR_KBV_PERSONENGRUPPE"/><code value="00"/></valueCoding></extension><extension url="http://fhir.de/StructureDefinition/gkv/dmp-kennzeichen"><valueCoding><system value="https://fhir.kbv.de/CodeSystem/KBV_CS_SFHIR_KBV_DMP"/><code value="00"/></valueCoding></extension><extension url="http://fhir.de/StructureDefinition/gkv/wop"><valueCoding><system value="https://fhir.kbv.de/CodeSystem/KBV_CS_SFHIR_ITA_WOP"/><code value="72"/></valueCoding></extension><extension url="http://fhir.de/StructureDefinition/gkv/versichertenart"><valueCoding><system value="https://fhir.kbv.de/CodeSystem/KBV_CS_SFHIR_KBV_VERSICHERTENSTATUS"/><code value="3"/></valueCoding></extension><status value="active"/><type><coding><system value="http://fhir.de/CodeSystem/versicherungsart-de-basis"/><code value="GKV"/></coding></type><beneficiary><reference value="urn:uuid:Patient/Example-Patient"/></beneficiary><period><end value="2040-04-01"/></period><payor><identifier><system value="http://fhir.de/sid/arge-ik/iknr"/><value value="108416214"/></identifier><display value="AOK Bayern Die Gesundh."/></payor></Coverage></resource></entry><entry><fullUrl value="urn:uuid:258ad91c-45bd-4aa0-a161-9e84187c1df6"/><resource><Organization><id value="258ad91c-45bd-4aa0-a161-9e84187c1df6"/><meta><profile value="https://gematik.de/fhir/erp-servicerequest/StructureDefinition/erp-service-request-organization"/><tag><system value="https://gematik.de/fhir/directory/CodeSystem/Origin"/><code value="owner"/></tag></meta><identifier><system value="https://gematik.de/fhir/sid/telematik-id"/><value value="1-031234567"/></identifier><name value="Pflegeheim Immergrün"/><address><type value="both"/><line value="Musterstr. 2"/><city value="Berlin"/><postalCode value="10623"/></address><contact><telecom><system value="phone"/><value value="0301234567"/></telecom><telecom><system value="email"/><value value="pflegeheim.immergrün.arzt@sana-pflegeheime.kim.telematik"/></telecom></contact></Organization></resource></entry></Bundle>