<?xml version='1.0' encoding='utf-8'?>
<Bundle xmlns="http://hl7.org/fhir"><id value="8784eeba-f382-496a-8a8d-f9ae7dd203f2"/><meta><profile value="https://gematik.de/fhir/erp-servicerequest/StructureDefinition/erp-service-request-message-container"/></meta><identifier><system value="urn:ietf:rfc:3986"/><value value="urn:uuid:8784eeba-f382-496a-8a8d-f9ae7dd203f2"/></identifier><type value="message"/><timestamp value="2024-11-01T14:18:54.243457+00:00"/><entry><fullUrl value="urn:uuid:8f97548f-6745-412e-9bed-694e9b723923"/><resource><MessageHeader><id value="8f97548f-6745-412e-9bed-694e9b723923"/><meta><profile value="https://gematik.de/fhir/erp-servicerequest/StructureDefinition/erp-service-request-request-header"/></meta><eventCoding><system value="https://gematik.de/fhir/atf/CodeSystem/service-identifier-cs"/><code value="eRezept_Rezeptanforderung;Rezeptanfrage"/><display value="Anfrage an einen Arzt ein Rezept auszustellen"/></eventCoding><destination><name value="Praxis Hans Topp-Glücklich"/><endpoint value="mailto:practitioner@test.kim.de"/></destination><sender><identifier><system value="https://gematik.de/fhir/sid/telematik-id"/><value value="5-test-telematik-id-pflegeinrichtung"/></identifier><display value="Pflegeheim Immergrün"/></sender><source><name value="HealthCare-Source"/><software value="HealthCare-Software"/><version value="1.0.0"/><contact><system value="email"/><value value="info@hcs.email"/></contact><endpoint value="mailto:healthcare-service@test.kim.de"/></source><responsible><reference value="urn:uuid:273eefa4-6663-4a1f-937a-c9ed2004be2e"/></responsible><focus><reference value="urn:uuid:b5e0292a-a91d-4ca4-92e2-3b8e9e6a42e5"/></focus></MessageHeader></resource></entry><entry><fullUrl value="urn:uuid:b5e0292a-a91d-4ca4-92e2-3b8e9e6a42e5"/><resource><ServiceRequest><id value="b5e0292a-a91d-4ca4-92e2-3b8e9e6a42e5"/><meta><profile value="https://gematik.de/fhir/erp-servicerequest/StructureDefinition/erp-service-request-prescription-request"/></meta><identifier><system value="https://gematik.de/fhir/erp-servicerequest/sid/RequestIdentifier"/><value value="fbe3a9c2-c776-43c1-932e-030a42b52482"/></identifier><identifier><system value="https://gematik.de/fhir/erp-servicerequest/sid/ProcedureIdentifier"/><value value="961ebc16-7b4f-4bb7-946f-359ec19f0ced"/></identifier><basedOn><reference value="uuid:08e57c1f-c4d6-459b-96e3-89d4662e31ff"/></basedOn><requisition><system value="https://gematik.de/fhir/erp-servicerequest/sid/ProcedureIdentifier"/><value value="961ebc16-7b4f-4bb7-946f-359ec19f0ced"/></requisition><status value="active"/><intent value="order"/><priority value="urgent"/><code><coding><system value="https://gematik.de/fhir/erp-servicerequest/CodeSystem/service-request-type-cs"/><code value="prescription-request"/></coding></code><orderDetail><coding><system value="https://gematik.de/fhir/erp-servicerequest/CodeSystem/prescription-fullfillment-type-cs"/><code value="return-to-requester"/></coding></orderDetail><subject><reference value="Patient/1f26a7bb-df19-40ac-8cd0-c0d8d143bc98"/></subject><occurrenceDateTime value="2024-11-01T15:18:54.242993+01:00"/><authoredOn value="2024-11-01T15:18:54.242995+01:00"/><requester><reference value="Organization/273eefa4-6663-4a1f-937a-c9ed2004be2e"/></requester><performer><identifier><system value="http://gematik.de/fhir/sid/KIM-Adresse"/><value value="practitioner@gluecklich.kim.telematik"/></identifier></performer><reasonCode><extension url="https://gematik.de/fhir/erp-servicerequest/StructureDefinition/remaining-supply-ex"><valueQuantity><value value="7.0"/><unit value="Stück"/></valueQuantity></extension><coding><system value="https://gematik.de/fhir/erp-servicerequest/CodeSystem/medication-request-reason-cs"/><code value="exhausted-range"/></coding><text value="Medikament läuft am 31.01.2025 aus. Es sind noch 7 stk übrig."/></reasonCode><reasonReference><reference value="uuid:304e9cff-5077-4af9-847d-c39ab1ee53da"/></reasonReference><reasonReference><reference value="uuid:a034e856-ff47-40fd-86cb-1a9bfb2c899b"/></reasonReference><note><time value="2024-11-01T15:18:54.243166+01:00"/><text value="Wird weiterhin benötigt, bitte um Verlängerung."/></note></ServiceRequest></resource></entry><entry><fullUrl value="urn:uuid:0dd9f382-d313-451b-ac7b-375e9bb3b50a"/><resource><Medication><id value="0dd9f382-d313-451b-ac7b-375e9bb3b50a"/><meta><profile value="https://fhir.kbv.de/StructureDefinition/KBV_PR_ERP_Medication_PZN|1.1.0"/></meta><extension url="https://fhir.kbv.de/StructureDefinition/KBV_EX_Base_Medication_Type"><valueCodeableConcept><coding><system value="http://snomed.info/sct"/><version value="http://snomed.info/sct/900000000000207008/version/20220331"/><code value="763158003"/><display value="Medicinal product (product)"/></coding></valueCodeableConcept></extension><extension url="https://fhir.kbv.de/StructureDefinition/KBV_EX_ERP_Medication_Category"><valueCoding><system value="https://fhir.kbv.de/CodeSystem/KBV_CS_ERP_Medication_Category"/><code value="00"/></valueCoding></extension><extension url="https://fhir.kbv.de/StructureDefinition/KBV_EX_ERP_Medication_Vaccine"><valueBoolean value="false"/></extension><extension url="http://fhir.de/StructureDefinition/normgroesse"><valueCode value="N1"/></extension><code><coding><system value="http://fhir.de/CodeSystem/ifa/pzn"/><code value="08585997"/></coding><text value="Prospan® Hustensaft 100ml"/></code><form><coding><system value="https://fhir.kbv.de/CodeSystem/KBV_CS_SFHIR_KBV_DARREICHUNGSFORM"/><code value="FLE"/></coding></form></Medication></resource></entry><entry><fullUrl value="urn:uuid:1f26a7bb-df19-40ac-8cd0-c0d8d143bc98"/><resource><Patient><id value="1f26a7bb-df19-40ac-8cd0-c0d8d143bc98"/><meta><profile value="https://gematik.de/fhir/erp-servicerequest/StructureDefinition/erp-service-request-patient"/></meta><identifier><system value="http://fhir.de/sid/gkv/kvid-10"/><value value="X234567890"/></identifier><name><use value="official"/><family value="Königsstein"><extension url="http://hl7.org/fhir/StructureDefinition/humanname-own-name"><valueString value="Königsstein"/></extension></family><given value="Ludger"/></name><birthDate value="1935-06-22"/><address><type value="both"/><line value="Musterstr. 1"><extension url="http://hl7.org/fhir/StructureDefinition/iso21090-ADXP-houseNumber"><valueString value="1"/></extension><extension url="http://hl7.org/fhir/StructureDefinition/iso21090-ADXP-streetName"><valueString value="Musterstr."/></extension></line><city value="Berlin"/><postalCode value="10623"/></address></Patient></resource></entry><entry><fullUrl value="urn:uuid:08e57c1f-c4d6-459b-96e3-89d4662e31ff"/><resource><MedicationRequest><id value="08e57c1f-c4d6-459b-96e3-89d4662e31ff"/><meta><profile value="https://gematik.de/fhir/erp-servicerequest/StructureDefinition/erp-service-request-medication-request"/></meta><extension url="https://gematik.de/fhir/erp-servicerequest/StructureDefinition/prescription-id-ex"><valueIdentifier><system value="https://gematik.de/fhir/erp/NamingSystem/GEM_ERP_NS_PrescriptionId"/><value value="160.100.000.000.001.36"/></valueIdentifier></extension><status value="active"/><intent value="order"/><medicationReference><reference value="urn:uuid:0dd9f382-d313-451b-ac7b-375e9bb3b50a"/></medicationReference><subject><reference value="urn:uuid:1f26a7bb-df19-40ac-8cd0-c0d8d143bc98"/></subject><authoredOn value="2024-11-01T15:18:54.242496+01:00"/><dosageInstruction><text value="2mal tägl. 5ml"/></dosageInstruction><dispenseRequest><quantity><value value="1.0"/><system value="http://unitsofmeasure.org"/><code value="{Package}"/></quantity></dispenseRequest></MedicationRequest></resource></entry><entry><fullUrl value="urn:uuid:273eefa4-6663-4a1f-937a-c9ed2004be2e"/><resource><Organization><id value="273eefa4-6663-4a1f-937a-c9ed2004be2e"/><meta><profile value="https://gematik.de/fhir/erp-servicerequest/StructureDefinition/erp-service-request-organization"/><tag><system value="https://gematik.de/fhir/directory/CodeSystem/Origin"/><code value="owner"/></tag></meta><identifier><system value="https://gematik.de/fhir/sid/telematik-id"/><value value="1-031234567"/></identifier><name value="Pflegeheim Immergrün"/><address><type value="both"/><line value="Musterstr. 2"/><city value="Berlin"/><postalCode value="10623"/></address><contact><telecom><system value="phone"/><value value="0301234567"/></telecom><telecom><system value="email"/><value value="pflegeheim.immergrün.arzt@sana-pflegeheime.kim.telematik"/></telecom></contact></Organization></resource></entry><entry><fullUrl value="urn:uuid:304e9cff-5077-4af9-847d-c39ab1ee53da"/><resource><Observation><id value="304e9cff-5077-4af9-847d-c39ab1ee53da"/><meta><profile value="https://gematik.de/fhir/erp-servicerequest/StructureDefinition/erp-service-request-remaining-medication"/></meta><status value="final"/><code><coding><system value="https://gematik.de/fhir/erp-servicerequest/CodeSystem/medication-observation-cs"/><code value="range-of-medication"/></coding></code><subject><reference value="urn:uuid:1f26a7bb-df19-40ac-8cd0-c0d8d143bc98"/></subject><valueDateTime value="2023-01-31"/></Observation></resource></entry><entry><fullUrl value="urn:uuid:a034e856-ff47-40fd-86cb-1a9bfb2c899b"/><resource><Observation><id value="a034e856-ff47-40fd-86cb-1a9bfb2c899b"/><meta><profile value="https://gematik.de/fhir/erp-servicerequest/StructureDefinition/erp-service-request-remaining-medication"/></meta><status value="final"/><code><coding><system value="https://gematik.de/fhir/erp-servicerequest/CodeSystem/medication-observation-cs"/><code value="range-of-medication"/></coding></code><subject><reference value="urn:uuid:1f26a7bb-df19-40ac-8cd0-c0d8d143bc98"/></subject><valueQuantity><value value="7.0"/><unit value="stk"/></valueQuantity></Observation></resource></entry></Bundle>