<?xml version='1.0' encoding='utf-8'?>
<Bundle xmlns="http://hl7.org/fhir"><id value="eee599a2-67e5-4f7d-bb95-ea50e9546a8f"/><meta><profile value="https://gematik.de/fhir/erp-servicerequest/StructureDefinition/erp-service-request-message-container"/></meta><identifier><system value="urn:ietf:rfc:3986"/><value value="urn:uuid:eee599a2-67e5-4f7d-bb95-ea50e9546a8f"/></identifier><type value="message"/><timestamp value="2024-10-30T14:38:33.454539+00:00"/><entry><fullUrl value="urn:uuid:aea981e2-f3c4-4c00-adea-3722f6f3d87b"/><resource><MessageHeader><id value="aea981e2-f3c4-4c00-adea-3722f6f3d87b"/><meta><profile value="https://gematik.de/fhir/erp-servicerequest/StructureDefinition/erp-service-request-request-header"/></meta><eventCoding><system value="https://gematik.de/fhir/atf/CodeSystem/service-identifier-cs"/><code value="eRezept_Rezeptanforderung;Abgabebestaetigung"/><display value="Bestätigung der Erfüllung und Abgabe eines Medikamentes"/></eventCoding><destination><name value="Pflegeheim Immergrün"/><endpoint value="5-test-telematik-id-pflegeinrichtung"/></destination><sender><identifier><system value="https://gematik.de/fhir/sid/telematik-id"/><value value="5-test-telematik-id-apotheke"/></identifier><display value="Test Apotheke"/></sender><source><name value="ApoSoft Gmbh"/><software value="ApoFlott"/><version value="1.1.3"/><contact><system value="email"/><value value="issues@apo-flott.de"/></contact><endpoint value="https://aposoft.de/issues"/></source><responsible><reference value="urn:uuid:91ceae5f-4dc1-4c84-821e-fd4f9de889b2"/></responsible><focus><reference value="urn:uuid:50001bc4-70cf-4c69-8b06-5757984e2e95"/></focus></MessageHeader></resource></entry><entry><fullUrl value="urn:uuid:50001bc4-70cf-4c69-8b06-5757984e2e95"/><resource><ServiceRequest><id value="50001bc4-70cf-4c69-8b06-5757984e2e95"/><meta><profile value="https://gematik.de/fhir/erp-servicerequest/StructureDefinition/erp-service-request-dispense-request"/></meta><identifier><system value="https://gematik.de/fhir/erp-servicerequest/sid/RequestIdentifier"/><value value="a6dabbb7-be81-4c55-add9-aa30f070d199"/></identifier><identifier><system value="https://gematik.de/fhir/erp-servicerequest/sid/ProcedureIdentifier"/><value value="99124356-d833-4d93-96ae-b0e578458c45"/></identifier><basedOn><reference value="urn:uuid:c0146e6a-8aad-49ec-bd60-eb1664a30986"/></basedOn><requisition><system value="https://gematik.de/fhir/erp-servicerequest/sid/ProcedureIdentifier"/><value value="99124356-d833-4d93-96ae-b0e578458c45"/></requisition><status value="completed"/><intent value="filler-order"/><code><coding><system value="https://gematik.de/fhir/erp-servicerequest/CodeSystem/service-request-type-cs"/><code value="dispense-request"/></coding></code><subject><reference value="urn:uuid:f91add65-c7a5-4010-8d11-993f7a8a0d33"/></subject><occurrenceDateTime value="2024-10-30T15:38:32.643496+01:00"/><authoredOn value="2024-10-30T15:38:32.643508+01:00"/><requester><reference value="urn:uuid:7d96144f-c5bf-40b8-9272-fcb3fa5ce3c2"/></requester><performer><identifier><system value="http://gematik.de/fhir/sid/KIM-Adresse"/><value value="Test Apotheke"/></identifier></performer><note><text value="Bitte wie üblich zur Abholung bereitlegen."/></note></ServiceRequest></resource></entry><entry><fullUrl value="urn:uuid:50001bc4-70cf-4c69-8b06-5757984e2e95"/><resource><ServiceRequest><id value="50001bc4-70cf-4c69-8b06-5757984e2e95"/><meta><profile value="https://gematik.de/fhir/erp-servicerequest/StructureDefinition/erp-service-request-dispense-request"/></meta><identifier><system value="https://gematik.de/fhir/erp-servicerequest/sid/RequestIdentifier"/><value value="a6dabbb7-be81-4c55-add9-aa30f070d199"/></identifier><identifier><system value="https://gematik.de/fhir/erp-servicerequest/sid/ProcedureIdentifier"/><value value="99124356-d833-4d93-96ae-b0e578458c45"/></identifier><basedOn><reference value="urn:uuid:c0146e6a-8aad-49ec-bd60-eb1664a30986"/></basedOn><requisition><system value="https://gematik.de/fhir/erp-servicerequest/sid/ProcedureIdentifier"/><value value="99124356-d833-4d93-96ae-b0e578458c45"/></requisition><status value="completed"/><intent value="filler-order"/><code><coding><system value="https://gematik.de/fhir/erp-servicerequest/CodeSystem/service-request-type-cs"/><code value="dispense-request"/></coding></code><subject><reference value="urn:uuid:f91add65-c7a5-4010-8d11-993f7a8a0d33"/></subject><occurrenceDateTime value="2024-10-30T15:38:32.643496+01:00"/><authoredOn value="2024-10-30T15:38:32.643508+01:00"/><requester><reference value="urn:uuid:7d96144f-c5bf-40b8-9272-fcb3fa5ce3c2"/></requester><performer><identifier><system value="http://gematik.de/fhir/sid/KIM-Adresse"/><value value="Test Apotheke"/></identifier></performer><note><text value="Bitte wie üblich zur Abholung bereitlegen."/></note></ServiceRequest></resource></entry><entry><fullUrl value="urn:uuid:None"/><resource><Bundle><type value="transaction"/><entry><fullUrl value="http://erp-servicerequest-test.de/MedicationDispense/3dee8ed3-183b-4633-a689-7b9d1855a896"/><resource><MedicationDispense><id value="3dee8ed3-183b-4633-a689-7b9d1855a896"/><meta><profile value="https://gematik.de/fhir/erp/StructureDefinition/GEM_ERP_PR_MedicationDispense|1.2"/></meta><contained><Medication><id value="bb3c75ec-644c-4513-bbb4-aef1658d2caa"/><meta><profile value="https://fhir.kbv.de/StructureDefinition/KBV_PR_ERP_Medication_PZN|1.1.0"/></meta><code><coding><system value="http://fhir.de/CodeSystem/ifa/pzn"/><code value="08585997"/></coding><text value="Prospan® Hustensaft 100ml N1"/></code></Medication></contained><identifier><use value="official"/><system value="https://gematik.de/fhir/erp/NamingSystem/GEM_ERP_NS_PrescriptionId"/><value value="160.100.000.000.002.36"/></identifier><status value="completed"/><medicationReference><reference value="urn:uuid:#bb3c75ec-644c-4513-bbb4-aef1658d2caa"/></medicationReference><subject><reference value="urn:uuid:X123456789"/></subject><performer><actor><identifier><system value="https://gematik.de/fhir/sid/telematik-id"/><value value="12345678901234567890"/></identifier></actor></performer><whenHandedOver value="2020-04-16T13:44:27.957000+00:00"/><dosageInstruction><sequence value="1"/><text value="Eine Tablette täglich"/><timing><repeat><frequency value="1"/><period value="1.0"/><periodUnit value="d"/></repeat></timing><doseAndRate><type><coding><code value="ordered"/></coding></type><doseQuantity><value value="1.0"/><unit value="tablet"/></doseQuantity></doseAndRate></dosageInstruction></MedicationDispense></resource></entry></Bundle></resource></entry></Bundle>