{"resourceType":"Bundle","id":"d1dab01a-85ae-4530-a5da-2593c3d6baaa","meta":{"profile":["https://gematik.de/fhir/erp-servicerequest/StructureDefinition/erp-service-request-message-container"]},"identifier":{"system":"urn:ietf:rfc:3986","value":"urn:uuid:d1dab01a-85ae-4530-a5da-2593c3d6baaa"},"type":"message","timestamp":"2024-10-31T14:53:03.837366+00:00","entry":[{"fullUrl":"urn:uuid:93724936-643b-4bc2-8fef-5baffc21b69d","resource":{"resourceType":"MessageHeader","id":"93724936-643b-4bc2-8fef-5baffc21b69d","meta":{"profile":["https://gematik.de/fhir/erp-servicerequest/StructureDefinition/erp-service-request-request-header"]},"eventCoding":{"system":"https://gematik.de/fhir/atf/CodeSystem/service-identifier-cs","code":"eRezept_Rezeptanforderung;Abgabeanfrage","display":"Anfrage zur Erfüllung eines Rezeptes und Abgabe des Medikaments"},"destination":[{"name":"Test Apotheke","endpoint":"5-test-telematik-id-apotheke"}],"sender":{"identifier":{"system":"https://gematik.de/fhir/sid/telematik-id","value":"5-test-telematik-id-pflegeinrichtung"},"display":"Pflegeheim Immergrün"},"source":{"name":"HealthCare-Source","software":"HealthCare-Software","version":"1.0.0","contact":{"system":"email","value":"info@hcs.email"},"endpoint":"mailto:healthcare-service@test.kim.de"},"responsible":{"reference":"urn:uuid:e9cdf535-5032-4eb0-a161-a9e12ad62a09"},"focus":[{"reference":"urn:uuid:75508c16-a224-4da0-a1b7-acaa08c2ffaa"}]}},{"fullUrl":"urn:uuid:75508c16-a224-4da0-a1b7-acaa08c2ffaa","resource":{"resourceType":"ServiceRequest","id":"75508c16-a224-4da0-a1b7-acaa08c2ffaa","meta":{"profile":["https://gematik.de/fhir/erp-servicerequest/StructureDefinition/erp-service-request-dispense-request"]},"extension":[{"url":"https://gematik.de/fhir/erp-servicerequest/StructureDefinition/eprescription-token-ex","valueIdentifier":{"system":"https://gematik.de/fhir/erp/sid/NamingSystemEPrescriptionToken","value":"Task/160.308.184.642.434/$accept?ac=EF4A9cc4ef0fA87d4c8d1DCCeDB8E0CCEEc0aeB8Ac1Ad452Aeeb4AD5A5Fa20c6"}}],"identifier":[{"system":"https://gematik.de/fhir/erp-servicerequest/sid/RequestIdentifier","value":"f1574863-2bd9-4018-a3ff-27cc01f875ad"},{"system":"https://gematik.de/fhir/erp-servicerequest/sid/ProcedureIdentifier","value":"0455ff78-ff45-4c31-8dc4-9415844ad543"}],"basedOn":[{"reference":"uuid:819d6fcd-def7-49a4-bb9b-49dbee04ac1f"}],"requisition":{"system":"https://gematik.de/fhir/erp-servicerequest/sid/ProcedureIdentifier","value":"0455ff78-ff45-4c31-8dc4-9415844ad543"},"status":"active","intent":"filler-order","priority":"urgent","code":{"coding":[{"system":"https://gematik.de/fhir/erp-servicerequest/CodeSystem/service-request-type-cs","code":"dispense-request"}]},"subject":{"reference":"Patient/92a19c11-7b82-4735-be2b-e78aa685504c"},"occurrenceDateTime":"2024-10-31T15:53:03.836789+01:00","authoredOn":"2024-10-31T15:53:03.836798+01:00","requester":{"reference":"Organization/258ad91c-45bd-4aa0-a161-9e84187c1df6"},"performer":[{"identifier":{"system":"http://gematik.de/fhir/sid/KIM-Adresse","value":"Test Apotheke"}}],"note":[{"time":"2024-10-31T15:53:03.836914+01:00","text":"Bitte wie üblich zur Abholung bereitlegen."}]}},{"fullUrl":"urn:uuid:92a19c11-7b82-4735-be2b-e78aa685504c","resource":{"resourceType":"Patient","id":"92a19c11-7b82-4735-be2b-e78aa685504c","meta":{"profile":["https://gematik.de/fhir/erp-servicerequest/StructureDefinition/erp-service-request-patient"]},"identifier":[{"system":"http://fhir.de/sid/gkv/kvid-10","value":"X234567890"}],"name":[{"use":"official","family":"Königsstein","_family":{"extension":[{"url":"http://hl7.org/fhir/StructureDefinition/humanname-own-name","valueString":"Königsstein"}]},"given":["Ludger"]}],"birthDate":"1935-06-22","address":[{"type":"both","line":["Musterstr. 1"],"_line":[{"extension":[{"url":"http://hl7.org/fhir/StructureDefinition/iso21090-ADXP-houseNumber","valueString":"1"},{"url":"http://hl7.org/fhir/StructureDefinition/iso21090-ADXP-streetName","valueString":"Musterstr."}]}],"city":"Berlin","postalCode":"10623"}]}},{"fullUrl":"urn:uuid:e9cdf535-5032-4eb0-a161-a9e12ad62a09","resource":{"resourceType":"Organization","id":"e9cdf535-5032-4eb0-a161-a9e12ad62a09","meta":{"profile":["https://gematik.de/fhir/erp-servicerequest/StructureDefinition/erp-service-request-organization"],"tag":[{"system":"https://gematik.de/fhir/directory/CodeSystem/Origin","code":"owner"}]},"identifier":[{"system":"https://gematik.de/fhir/sid/telematik-id","value":"1-031234567"}],"name":"Pflegeheim Immergrün","address":[{"type":"both","line":["Musterstr. 2"],"city":"Berlin","postalCode":"10623"}],"contact":[{"telecom":[{"system":"phone","value":"0301234567"},{"system":"email","value":"pflegeheim.immergrün.arzt@sana-pflegeheime.kim.telematik"}]}]}}]}