<?xml version='1.0' encoding='utf-8'?>
<Bundle xmlns="http://hl7.org/fhir"><id value="bd60c22a-6608-40ed-9b6f-6ca50832e49d"/><meta><profile value="https://gematik.de/fhir/atf/StructureDefinition/bundle-app-transport-framework"/></meta><identifier><system value="urn:ietf:rfc:3986"/><value value="urn:uuid:bd60c22a-6608-40ed-9b6f-6ca50832e49d"/></identifier><type value="message"/><timestamp value="2024-10-30T12:46:25.628190+00:00"/><entry><fullUrl value="urn:uuid:09ca9a1e-b0dc-4e2c-97cd-721f77c5bef3"/><resource><MessageHeader><id value="09ca9a1e-b0dc-4e2c-97cd-721f77c5bef3"/><meta><profile value="https://gematik.de/fhir/atf/StructureDefinition/message-header-app-transport"/></meta><eventCoding><system value="https://gematik.de/fhir/atf/CodeSystem/service-identifier-cs"/><code value="eRezept_Rezeptanforderung;Rezeptbestaetigung"/><display value="Bestätigung und Übermittlung eines ausgestellten Rezeptes"/></eventCoding><destination><name value="Pflegeheim Immergrün"/><endpoint value="mailto:healthcare-service@test.kim.de"/></destination><sender><identifier><system value="http://gematik.de/fhir/sid/KIM-Adresse"/><value value="mailto:practitioner@test.kim.de"/></identifier><display value="Praxis Hans Topp-Glücklich"/></sender><source><name value="DeltaCare Inc."/><software value="PraxisFix"/><version value="1.3.2"/><contact><system value="email"/><value value="issues@praxisfix-deltacare.de"/></contact><endpoint value="https://deltacare.de/praxisfix/issues"/></source><responsible><reference value="urn:uuid:b6cbf08e-1a44-4087-8fa1-9ab1fea52be1"/></responsible><focus><reference value="urn:uuid:43ddfb34-8f0d-4528-be48-425439262f3a"/></focus></MessageHeader></resource></entry><entry><fullUrl value="urn:uuid:43ddfb34-8f0d-4528-be48-425439262f3a"/><resource><ServiceRequest><id value="43ddfb34-8f0d-4528-be48-425439262f3a"/><meta><profile value="https://gematik.de/fhir/erp-servicerequest/StructureDefinition/erp-service-request-prescription-request"/></meta><extension url="https://gematik.de/fhir/erp-servicerequest/StructureDefinition/eprescription-token-ex"><valueIdentifier><system value="https://gematik.de/fhir/erp/sid/NamingSystemEPrescriptionToken"/><value value="Task/160.162.434.495.774/$accept?ac=376AE5B17d3C07c0a7cCf27dEBA0BeCc3d5C3b07fFB8B0dDA7B1D73D6E5bcFe7"/></valueIdentifier></extension><identifier><system value="https://gematik.de/fhir/erp-servicerequest/sid/RequestIdentifier"/><value value="3a0b434f-45b3-4859-a689-44da2a681851"/></identifier><identifier><system value="https://gematik.de/fhir/erp-servicerequest/sid/NamingSystemPreDisIdentifier"/><value value="e9a40715-e7c4-4792-8ff5-b35a4fad4b08"/></identifier><identifier><system value="https://gematik.de/fhir/erp-servicerequest/sid/ProcedureIdentifier"/><value value="223dc422-7e1b-4300-a543-5d0302fcb82c"/></identifier><basedOn><reference value="urn:uuid:a2557af2-cd05-406e-9492-2fb74eabc9c1"/></basedOn><requisition><system value="https://gematik.de/fhir/erp-servicerequest/sid/ProcedureIdentifier"/><value value="223dc422-7e1b-4300-a543-5d0302fcb82c"/></requisition><status value="completed"/><intent value="order"/><code><coding><system value="https://gematik.de/fhir/erp-servicerequest/CodeSystem/service-request-type-cs"/><code value="prescription-request"/></coding></code><orderDetail><coding><system value="https://gematik.de/fhir/erp-servicerequest/CodeSystem/prescription-fullfillment-type-cs"/><code value="return-to-requester"/></coding></orderDetail><subject><reference value="urn:uuid:ef442bf2-5a2d-4b33-acf5-47d0eda37b10"/></subject><occurrenceDateTime value="2024-10-30T13:46:24.707405+01:00"/><authoredOn value="2024-10-30T13:46:24.707411+01:00"/><requester><reference value="urn:uuid:b6cbf08e-1a44-4087-8fa1-9ab1fea52be1"/></requester><performer><identifier><system value="http://gematik.de/fhir/sid/KIM-Adresse"/><value value="practitioner@gluecklich.kim.telematik"/></identifier></performer><reasonCode><coding><system value="https://gematik.de/fhir/erp-servicerequest/CodeSystem/medication-request-reason-cs"/><code value="medication-runs-out"/></coding></reasonCode><reasonReference><reference value="urn:uuid:e6860f74-225f-4047-a12d-69d4d60c5b8f"/></reasonReference><reasonReference><reference value="urn:uuid:cf7a826b-1a90-4a49-a77c-f5d144be5933"/></reasonReference><note><text value="Medikament läuft am 31.01.2025 aus. Es sind noch 7 stk übrig."/></note></ServiceRequest></resource></entry><entry><fullUrl value="urn:uuid:a2557af2-cd05-406e-9492-2fb74eabc9c1"/><resource><MedicationRequest><id value="a2557af2-cd05-406e-9492-2fb74eabc9c1"/><meta><profile value="https://fhir.kbv.de/StructureDefinition/KBV_PR_ERP_Prescription|1.1.0"/></meta><extension url="https://fhir.kbv.de/StructureDefinition/KBV_EX_ERP_EmergencyServicesFee"><valueBoolean value="false"/></extension><status value="active"/><intent value="order"/><medicationReference><reference value="urn:uuid:6a60288f-e493-42b8-89d7-db7902497f0a"/></medicationReference><subject><reference value="urn:uuid:7272a60b-7de3-4cec-89ed-426dcaf44b3d"/></subject><authoredOn value="2024-10-30"/><requester><reference value="urn:uuid:fd66d500-f8e2-45ec-b2d2-2071cb986311"/></requester><insurance><reference value="urn:uuid:a5b9ae34-5a6e-439d-ae60-9728d83de213"/></insurance><dosageInstruction><extension url="https://fhir.kbv.de/StructureDefinition/KBV_EX_ERP_DosageFlag"><valueBoolean value="true"/></extension><text value="2mal tägl. 5ml"/></dosageInstruction></MedicationRequest></resource></entry><entry><fullUrl value="urn:uuid:6a60288f-e493-42b8-89d7-db7902497f0a"/><resource><Medication><id value="6a60288f-e493-42b8-89d7-db7902497f0a"/><meta><profile value="https://fhir.kbv.de/StructureDefinition/KBV_PR_ERP_Medication_PZN|1.1.0"/></meta><extension url="https://fhir.kbv.de/StructureDefinition/KBV_EX_Base_Medication_Type"><valueCodeableConcept><coding><system value="http://snomed.info/sct"/><version value="http://snomed.info/sct/900000000000207008/version/20220331"/><code value="763158003"/><display value="Medicinal product (product)"/></coding></valueCodeableConcept></extension><extension url="https://fhir.kbv.de/StructureDefinition/KBV_EX_ERP_Medication_Category"><valueCoding><system value="https://fhir.kbv.de/CodeSystem/KBV_CS_ERP_Medication_Category"/><code value="00"/></valueCoding></extension><extension url="https://fhir.kbv.de/StructureDefinition/KBV_EX_ERP_Medication_Vaccine"><valueBoolean value="false"/></extension><extension url="http://fhir.de/StructureDefinition/normgroesse"><valueCode value="N1"/></extension><code><coding><system value="http://fhir.de/CodeSystem/ifa/pzn"/><code value="08585997"/></coding><text value="Prospan® Hustensaft 100ml"/></code><form><coding><system value="https://fhir.kbv.de/CodeSystem/KBV_CS_SFHIR_KBV_DARREICHUNGSFORM"/><code value="FLE"/></coding></form></Medication></resource></entry><entry><fullUrl value="urn:uuid:fd66d500-f8e2-45ec-b2d2-2071cb986311"/><resource><Practitioner><id value="fd66d500-f8e2-45ec-b2d2-2071cb986311"/><meta><profile value="https://fhir.kbv.de/StructureDefinition/KBV_PR_FOR_Practitioner|1.1.0"/></meta><identifier><type><coding><system value="http://terminology.hl7.org/CodeSystem/v2-0203"/><code value="LANR"/></coding></type><system value="https://fhir.kbv.de/NamingSystem/KBV_NS_Base_ANR"/><value value="838382202"/></identifier><identifier><type><coding><system value="http://terminology.hl7.org/CodeSystem/v2-0203"/><code value="PRN"/></coding></type><system value="https://gematik.de/fhir/sid/telematik-id"/><value value="1-838382202"/></identifier><name><use value="official"/><family value="Topp-Glücklich"><extension url="http://hl7.org/fhir/StructureDefinition/humanname-own-name"><valueString value="Topp-Glücklich"/></extension></family><given value="Hans"/><prefix value="Dr. med."/></name><qualification><code><coding><system value="https://fhir.kbv.de/CodeSystem/KBV_CS_FOR_Qualification_Type"/><code value="00"/></coding><text value="Arzt"/></code></qualification><qualification><code><coding><system value="https://fhir.kbv.de/CodeSystem/KBV_CS_FOR_Berufsbezeichnung"/><code value="Berufsbezeichnung"/></coding><text value="Hausarzt"/></code></qualification></Practitioner></resource></entry><entry><fullUrl value="urn:uuid:7272a60b-7de3-4cec-89ed-426dcaf44b3d"/><resource><Patient><id value="7272a60b-7de3-4cec-89ed-426dcaf44b3d"/><meta><profile value="https://fhir.kbv.de/StructureDefinition/KBV_PR_FOR_Patient|1.1.0"/></meta><identifier><type><coding><system value="http://fhir.de/CodeSystem/identifier-type-de-basis"/><code value="GKV"/></coding></type><system value="http://fhir.de/sid/gkv/kvid-10"/><value value="X234567890"/></identifier><name><use value="official"/><family value="Königsstein"><extension url="http://hl7.org/fhir/StructureDefinition/humanname-own-name"><valueString value="Königsstein"/></extension></family><given value="Ludger"/></name><birthDate value="1935-06-22"/><address><type value="both"/><line value="Musterstr. 1"><extension url="http://hl7.org/fhir/StructureDefinition/iso21090-ADXP-houseNumber"><valueString value="1"/></extension><extension url="http://hl7.org/fhir/StructureDefinition/iso21090-ADXP-streetName"><valueString value="Musterstr."/></extension></line><city value="Berlin"/><postalCode value="10623"/></address></Patient></resource></entry><entry><fullUrl value="urn:uuid:a5b9ae34-5a6e-439d-ae60-9728d83de213"/><resource><Coverage><id value="a5b9ae34-5a6e-439d-ae60-9728d83de213"/><meta><profile value="https://fhir.kbv.de/StructureDefinition/KBV_PR_FOR_Coverage|1.1.0"/></meta><extension url="http://fhir.de/StructureDefinition/gkv/besondere-personengruppe"><valueCoding><system value="https://fhir.kbv.de/CodeSystem/KBV_CS_SFHIR_KBV_PERSONENGRUPPE"/><code value="00"/></valueCoding></extension><extension url="http://fhir.de/StructureDefinition/gkv/dmp-kennzeichen"><valueCoding><system value="https://fhir.kbv.de/CodeSystem/KBV_CS_SFHIR_KBV_DMP"/><code value="00"/></valueCoding></extension><extension url="http://fhir.de/StructureDefinition/gkv/wop"><valueCoding><system value="https://fhir.kbv.de/CodeSystem/KBV_CS_SFHIR_ITA_WOP"/><code value="72"/></valueCoding></extension><extension url="http://fhir.de/StructureDefinition/gkv/versichertenart"><valueCoding><system value="https://fhir.kbv.de/CodeSystem/KBV_CS_SFHIR_KBV_VERSICHERTENSTATUS"/><code value="3"/></valueCoding></extension><status value="active"/><type><coding><system value="http://fhir.de/CodeSystem/versicherungsart-de-basis"/><code value="GKV"/></coding></type><beneficiary><reference value="urn:uuid:Patient/Example-Patient"/></beneficiary><period><end value="2040-04-01"/></period><payor><identifier><system value="http://fhir.de/sid/arge-ik/iknr"/><value value="108416214"/></identifier><display value="AOK Bayern Die Gesundh."/></payor></Coverage></resource></entry><entry><fullUrl value="urn:uuid:b6cbf08e-1a44-4087-8fa1-9ab1fea52be1"/><resource><Organization><id value="b6cbf08e-1a44-4087-8fa1-9ab1fea52be1"/><meta><profile value="https://gematik.de/fhir/erp-servicerequest/StructureDefinition/erp-service-request-organization"/></meta><identifier><type><coding><system value="https://gematik.de/fhir/directory/CodeSystem/EndpointDirectoryConnectionType"/><code value="kim-2.0"/></coding></type><system value="http://gematik.de/fhir/sid/KIM-Adresse"/><value value="pflegeheim.immergrün.arzt@sana-pflegeheime.kim.telematik"/></identifier><identifier><type><coding><system value="http://terminology.hl7.org/CodeSystem/v2-0203"/><code value="PRN"/></coding></type><system value="https://gematik.de/fhir/sid/telematik-id"/><value value="1-031234567"/></identifier><identifier><type><coding><system value="http://terminology.hl7.org/CodeSystem/v2-0203"/><code value="BSNR"/></coding></type><system value="https://fhir.kbv.de/NamingSystem/KBV_NS_Base_BSNR"/><value value="031234567"/></identifier><name value="Pflegeheim Immergrün"/><telecom><system value="phone"/><value value="0301234567"/></telecom><address><type value="both"/><line value="Musterstr. 2"><extension url="http://hl7.org/fhir/StructureDefinition/iso21090-ADXP-houseNumber"><valueString value="2"/></extension><extension url="http://hl7.org/fhir/StructureDefinition/iso21090-ADXP-streetName"><valueString value="Musterstr."/></extension></line><city value="Berlin"/><postalCode value="10623"/></address></Organization></resource></entry><entry><fullUrl value="urn:uuid:43ddfb34-8f0d-4528-be48-425439262f3a"/><resource><ServiceRequest><id value="43ddfb34-8f0d-4528-be48-425439262f3a"/><meta><profile value="https://gematik.de/fhir/erp-servicerequest/StructureDefinition/erp-service-request-prescription-request"/></meta><extension url="https://gematik.de/fhir/erp-servicerequest/StructureDefinition/eprescription-token-ex"><valueIdentifier><system value="https://gematik.de/fhir/erp/sid/NamingSystemEPrescriptionToken"/><value value="Task/160.162.434.495.774/$accept?ac=376AE5B17d3C07c0a7cCf27dEBA0BeCc3d5C3b07fFB8B0dDA7B1D73D6E5bcFe7"/></valueIdentifier></extension><identifier><system value="https://gematik.de/fhir/erp-servicerequest/sid/RequestIdentifier"/><value value="3a0b434f-45b3-4859-a689-44da2a681851"/></identifier><identifier><system value="https://gematik.de/fhir/erp-servicerequest/sid/NamingSystemPreDisIdentifier"/><value value="e9a40715-e7c4-4792-8ff5-b35a4fad4b08"/></identifier><identifier><system value="https://gematik.de/fhir/erp-servicerequest/sid/ProcedureIdentifier"/><value value="223dc422-7e1b-4300-a543-5d0302fcb82c"/></identifier><basedOn><reference value="urn:uuid:a2557af2-cd05-406e-9492-2fb74eabc9c1"/></basedOn><requisition><system value="https://gematik.de/fhir/erp-servicerequest/sid/ProcedureIdentifier"/><value value="223dc422-7e1b-4300-a543-5d0302fcb82c"/></requisition><status value="completed"/><intent value="order"/><code><coding><system value="https://gematik.de/fhir/erp-servicerequest/CodeSystem/service-request-type-cs"/><code value="prescription-request"/></coding></code><orderDetail><coding><system value="https://gematik.de/fhir/erp-servicerequest/CodeSystem/prescription-fullfillment-type-cs"/><code value="return-to-requester"/></coding></orderDetail><subject><reference value="urn:uuid:ef442bf2-5a2d-4b33-acf5-47d0eda37b10"/></subject><occurrenceDateTime value="2024-10-30T13:46:24.707405+01:00"/><authoredOn value="2024-10-30T13:46:24.707411+01:00"/><requester><reference value="urn:uuid:b6cbf08e-1a44-4087-8fa1-9ab1fea52be1"/></requester><performer><identifier><system value="http://gematik.de/fhir/sid/KIM-Adresse"/><value value="practitioner@gluecklich.kim.telematik"/></identifier></performer><reasonCode><coding><system value="https://gematik.de/fhir/erp-servicerequest/CodeSystem/medication-request-reason-cs"/><code value="medication-runs-out"/></coding></reasonCode><reasonReference><reference value="urn:uuid:e6860f74-225f-4047-a12d-69d4d60c5b8f"/></reasonReference><reasonReference><reference value="urn:uuid:cf7a826b-1a90-4a49-a77c-f5d144be5933"/></reasonReference><note><text value="Medikament läuft am 31.01.2025 aus. Es sind noch 7 stk übrig."/></note></ServiceRequest></resource></entry></Bundle>