<?xml version='1.0' encoding='utf-8'?>
<Bundle xmlns="http://hl7.org/fhir"><id value="928b5d47-9e91-4deb-9d2d-414cb5889fb1"/><meta><profile value="https://gematik.de/fhir/erp-servicerequest/StructureDefinition/erp-service-request-message-container"/></meta><identifier><system value="urn:ietf:rfc:3986"/><value value="urn:uuid:928b5d47-9e91-4deb-9d2d-414cb5889fb1"/></identifier><type value="message"/><timestamp value="2024-11-05T12:56:17.972435+00:00"/><entry><fullUrl value="urn:uuid:a296cbfe-e61f-4673-8d19-2573e95d2d6e"/><resource><MessageHeader><id value="a296cbfe-e61f-4673-8d19-2573e95d2d6e"/><meta><profile value="https://gematik.de/fhir/erp-servicerequest/StructureDefinition/erp-service-request-request-header"/></meta><eventCoding><system value="https://gematik.de/fhir/atf/CodeSystem/service-identifier-cs"/><code value="eRezept_Rezeptanforderung;Rezeptanfrage"/><display value="Anfrage an einen Arzt ein Rezept auszustellen"/></eventCoding><destination><name value="Praxis Hans Topp-Glücklich"/><endpoint value="mailto:practitioner@test.kim.de"/></destination><sender><identifier><system value="https://gematik.de/fhir/sid/telematik-id"/><value value="5-test-telematik-id-pflegeinrichtung"/></identifier><display value="Pflegeheim Immergrün"/></sender><source><name value="HealthCare-Source"/><software value="HealthCare-Software"/><version value="1.0.0"/><contact><system value="email"/><value value="info@hcs.email"/></contact><endpoint value="mailto:healthcare-service@test.kim.de"/></source><responsible><reference value="urn:uuid:28bb247f-d226-4a29-8277-93b92e932b71"/></responsible><focus><reference value="urn:uuid:4119f727-ced5-4519-95b6-38be3d5c2b1d"/></focus></MessageHeader></resource></entry><entry><fullUrl value="urn:uuid:4119f727-ced5-4519-95b6-38be3d5c2b1d"/><resource><ServiceRequest><id value="4119f727-ced5-4519-95b6-38be3d5c2b1d"/><meta><profile value="https://gematik.de/fhir/erp-servicerequest/StructureDefinition/erp-service-request-prescription-request"/></meta><identifier><system value="https://gematik.de/fhir/erp-servicerequest/sid/RequestIdentifier"/><value value="e10d305c-9c0b-4ebc-89e6-daeddeb40ef7"/></identifier><identifier><system value="https://gematik.de/fhir/erp-servicerequest/sid/ProcedureIdentifier"/><value value="3a6be261-2c01-494b-bc36-70858ece800f"/></identifier><basedOn><reference value="uuid:6000b902-d64e-45ea-86fc-81f01c0d9547"/></basedOn><requisition><system value="https://gematik.de/fhir/erp-servicerequest/sid/ProcedureIdentifier"/><value value="3a6be261-2c01-494b-bc36-70858ece800f"/></requisition><status value="active"/><intent value="order"/><priority value="urgent"/><code><coding><system value="https://gematik.de/fhir/erp-servicerequest/CodeSystem/service-request-type-cs"/><code value="prescription-request"/></coding></code><orderDetail><coding><system value="https://gematik.de/fhir/erp-servicerequest/CodeSystem/prescription-fullfillment-type-cs"/><code value="return-to-requester"/></coding></orderDetail><subject><reference value="Patient/7e0f97ef-59df-4cc2-99e1-ee7b4ee20465"/></subject><occurrenceDateTime value="2024-11-05T13:56:17.971809+01:00"/><authoredOn value="2024-11-05T13:56:17.971813+01:00"/><requester><reference value="Organization/28bb247f-d226-4a29-8277-93b92e932b71"/></requester><performer><identifier><system value="http://gematik.de/fhir/sid/KIM-Adresse"/><value value="practitioner@gluecklich.kim.telematik"/></identifier></performer><reasonCode><extension url="https://gematik.de/fhir/erp-servicerequest/StructureDefinition/remaining-supply-ex"><valueQuantity><value value="7.0"/><unit value="Stück"/></valueQuantity></extension><coding><system value="https://gematik.de/fhir/erp-servicerequest/CodeSystem/medication-request-reason-cs"/><code value="exhausted-range"/></coding><text value="Medikament läuft am 31.01.2025 aus. Es sind noch 7 stk übrig."/></reasonCode><reasonReference><reference value="uuid:3a6f92d6-ff9e-4507-a0ae-06a69035dc36"/></reasonReference><reasonReference><reference value="uuid:ee5fac31-527e-4fa5-a18a-95ccde259340"/></reasonReference><note><time value="2024-11-05T13:56:17.972094+01:00"/><text value="Wird weiterhin benötigt, bitte um Verlängerung."/></note></ServiceRequest></resource></entry><entry><fullUrl value="urn:uuid:f47730db-e9a0-4dae-91ac-d477e12aec72"/><resource><Medication><id value="f47730db-e9a0-4dae-91ac-d477e12aec72"/><meta><profile value="https://fhir.kbv.de/StructureDefinition/KBV_PR_ERP_Medication_PZN|1.1.0"/></meta><extension url="https://fhir.kbv.de/StructureDefinition/KBV_EX_Base_Medication_Type"><valueCodeableConcept><coding><system value="http://snomed.info/sct"/><version value="http://snomed.info/sct/900000000000207008/version/20220331"/><code value="763158003"/><display value="Medicinal product (product)"/></coding></valueCodeableConcept></extension><extension url="https://fhir.kbv.de/StructureDefinition/KBV_EX_ERP_Medication_Category"><valueCoding><system value="https://fhir.kbv.de/CodeSystem/KBV_CS_ERP_Medication_Category"/><code value="00"/></valueCoding></extension><extension url="https://fhir.kbv.de/StructureDefinition/KBV_EX_ERP_Medication_Vaccine"><valueBoolean value="false"/></extension><extension url="http://fhir.de/StructureDefinition/normgroesse"><valueCode value="N1"/></extension><code><coding><system value="http://fhir.de/CodeSystem/ifa/pzn"/><code value="08585997"/></coding><text value="Prospan® Hustensaft 100ml"/></code><form><coding><system value="https://fhir.kbv.de/CodeSystem/KBV_CS_SFHIR_KBV_DARREICHUNGSFORM"/><code value="FLE"/></coding></form></Medication></resource></entry><entry><fullUrl value="urn:uuid:7e0f97ef-59df-4cc2-99e1-ee7b4ee20465"/><resource><Patient><id value="7e0f97ef-59df-4cc2-99e1-ee7b4ee20465"/><meta><profile value="https://gematik.de/fhir/erp-servicerequest/StructureDefinition/erp-service-request-patient"/></meta><identifier><system value="http://fhir.de/sid/gkv/kvid-10"/><value value="X234567890"/></identifier><name><use value="official"/><family value="Königsstein"><extension url="http://hl7.org/fhir/StructureDefinition/humanname-own-name"><valueString value="Königsstein"/></extension></family><given value="Ludger"/></name><birthDate value="1935-06-22"/><address><type value="both"/><line value="Musterstr. 1"><extension url="http://hl7.org/fhir/StructureDefinition/iso21090-ADXP-houseNumber"><valueString value="1"/></extension><extension url="http://hl7.org/fhir/StructureDefinition/iso21090-ADXP-streetName"><valueString value="Musterstr."/></extension></line><city value="Berlin"/><postalCode value="10623"/></address></Patient></resource></entry><entry><fullUrl value="urn:uuid:6000b902-d64e-45ea-86fc-81f01c0d9547"/><resource><MedicationRequest><id value="6000b902-d64e-45ea-86fc-81f01c0d9547"/><meta><profile value="https://gematik.de/fhir/erp-servicerequest/StructureDefinition/erp-service-request-medication-request"/></meta><extension url="https://gematik.de/fhir/erp-servicerequest/StructureDefinition/prescription-id-ex"><valueIdentifier><system value="https://gematik.de/fhir/erp/NamingSystem/GEM_ERP_NS_PrescriptionId"/><value value="160.100.000.000.001.36"/></valueIdentifier></extension><status value="active"/><intent value="order"/><medicationReference><reference value="urn:uuid:f47730db-e9a0-4dae-91ac-d477e12aec72"/></medicationReference><subject><reference value="urn:uuid:7e0f97ef-59df-4cc2-99e1-ee7b4ee20465"/></subject><authoredOn value="2024-11-05T13:56:17.971252+01:00"/><dosageInstruction><text value="2mal tägl. 5ml"/></dosageInstruction><dispenseRequest><quantity><value value="1.0"/><system value="http://unitsofmeasure.org"/><code value="{Package}"/></quantity></dispenseRequest></MedicationRequest></resource></entry><entry><fullUrl value="urn:uuid:28bb247f-d226-4a29-8277-93b92e932b71"/><resource><Organization><id value="28bb247f-d226-4a29-8277-93b92e932b71"/><meta><profile value="https://gematik.de/fhir/erp-servicerequest/StructureDefinition/erp-service-request-organization"/><tag><system value="https://gematik.de/fhir/directory/CodeSystem/Origin"/><code value="owner"/></tag></meta><identifier><system value="https://gematik.de/fhir/sid/telematik-id"/><value value="1-031234567"/></identifier><name value="Pflegeheim Immergrün"/><address><type value="both"/><line value="Musterstr. 2"/><city value="Berlin"/><postalCode value="10623"/></address><contact><telecom><system value="phone"/><value value="0301234567"/></telecom><telecom><system value="email"/><value value="pflegeheim.immergrün.arzt@sana-pflegeheime.kim.telematik"/></telecom></contact></Organization></resource></entry><entry><fullUrl value="urn:uuid:3a6f92d6-ff9e-4507-a0ae-06a69035dc36"/><resource><Observation><id value="3a6f92d6-ff9e-4507-a0ae-06a69035dc36"/><meta><profile value="https://gematik.de/fhir/erp-servicerequest/StructureDefinition/erp-service-request-remaining-medication"/></meta><status value="final"/><code><coding><system value="https://gematik.de/fhir/erp-servicerequest/CodeSystem/medication-observation-cs"/><code value="range-of-medication"/></coding></code><subject><reference value="urn:uuid:7e0f97ef-59df-4cc2-99e1-ee7b4ee20465"/></subject><valueDateTime value="2023-01-31"/></Observation></resource></entry><entry><fullUrl value="urn:uuid:ee5fac31-527e-4fa5-a18a-95ccde259340"/><resource><Observation><id value="ee5fac31-527e-4fa5-a18a-95ccde259340"/><meta><profile value="https://gematik.de/fhir/erp-servicerequest/StructureDefinition/erp-service-request-remaining-medication"/></meta><status value="final"/><code><coding><system value="https://gematik.de/fhir/erp-servicerequest/CodeSystem/medication-observation-cs"/><code value="range-of-medication"/></coding></code><subject><reference value="urn:uuid:7e0f97ef-59df-4cc2-99e1-ee7b4ee20465"/></subject><valueQuantity><value value="7.0"/><unit value="stk"/></valueQuantity></Observation></resource></entry></Bundle>