<?xml version='1.0' encoding='utf-8'?>
<Bundle xmlns="http://hl7.org/fhir"><id value="26f5ed2a-d849-4c71-80d2-89c48f3eb976"/><meta><profile value="https://gematik.de/fhir/erp-servicerequest/StructureDefinition/erp-service-request-message-container"/></meta><identifier><system value="urn:ietf:rfc:3986"/><value value="urn:uuid:26f5ed2a-d849-4c71-80d2-89c48f3eb976"/></identifier><type value="message"/><timestamp value="2024-11-01T14:40:55.910564+00:00"/><entry><fullUrl value="urn:uuid:97762865-f021-4b44-8470-b99c65b9fcc1"/><resource><MessageHeader><id value="97762865-f021-4b44-8470-b99c65b9fcc1"/><meta><profile value="https://gematik.de/fhir/erp-servicerequest/StructureDefinition/erp-service-request-request-header"/></meta><eventCoding><system value="https://gematik.de/fhir/atf/CodeSystem/service-identifier-cs"/><code value="eRezept_Rezeptanforderung;Abgabebestaetigung"/><display value="Bestätigung der Erfüllung und Abgabe eines Medikamentes"/></eventCoding><destination><name value="Pflegeheim Immergrün"/><endpoint value="5-test-telematik-id-pflegeinrichtung"/></destination><sender><identifier><system value="https://gematik.de/fhir/sid/telematik-id"/><value value="5-test-telematik-id-apotheke"/></identifier><display value="Test Apotheke"/></sender><source><name value="ApoSoft Gmbh"/><software value="ApoFlott"/><version value="1.1.3"/><contact><system value="email"/><value value="issues@apo-flott.de"/></contact><endpoint value="https://aposoft.de/issues"/></source><responsible><reference value="urn:uuid:19d02f56-5e54-4905-979a-97da1eb04bce"/></responsible><focus><reference value="urn:uuid:a7ea0f41-2f00-442c-a5c8-25d61185109a"/></focus></MessageHeader></resource></entry><entry><fullUrl value="urn:uuid:a7ea0f41-2f00-442c-a5c8-25d61185109a"/><resource><ServiceRequest><id value="a7ea0f41-2f00-442c-a5c8-25d61185109a"/><meta><profile value="https://gematik.de/fhir/erp-servicerequest/StructureDefinition/erp-service-request-dispense-request"/></meta><identifier><system value="https://gematik.de/fhir/erp-servicerequest/sid/RequestIdentifier"/><value value="8ddc6c37-cddb-496d-a526-bb1e67b1c87e"/></identifier><identifier><system value="https://gematik.de/fhir/erp-servicerequest/sid/ProcedureIdentifier"/><value value="6293e0d2-0ebb-4694-8c3d-28c764eed685"/></identifier><basedOn><reference value="uuid:3af51d77-2ecc-466f-b8d7-af2173309afb"/></basedOn><requisition><system value="https://gematik.de/fhir/erp-servicerequest/sid/ProcedureIdentifier"/><value value="6293e0d2-0ebb-4694-8c3d-28c764eed685"/></requisition><status value="completed"/><intent value="filler-order"/><priority value="urgent"/><code><coding><system value="https://gematik.de/fhir/erp-servicerequest/CodeSystem/service-request-type-cs"/><code value="dispense-request"/></coding></code><subject><reference value="Patient/de7cb9d9-dfbf-46b9-992d-059ca262398f"/></subject><occurrenceDateTime value="2024-11-01T15:40:54.891924+01:00"/><authoredOn value="2024-11-01T15:40:54.891932+01:00"/><requester><reference value="Organization/13cbe426-b7fe-4280-94e2-efb3038682c0"/></requester><performer><identifier><system value="http://gematik.de/fhir/sid/KIM-Adresse"/><value value="Test Apotheke"/></identifier></performer><note><time value="2024-11-01T15:40:54.892011+01:00"/><text value="Bitte wie üblich zur Abholung bereitlegen."/></note></ServiceRequest></resource></entry><entry><fullUrl value="urn:uuid:None"/><resource><Bundle><type value="transaction"/><entry><fullUrl value="http://erp-servicerequest-test.de/MedicationDispense/da9744d0-d5a6-4c13-8047-643db5601179"/><resource><MedicationDispense><id value="da9744d0-d5a6-4c13-8047-643db5601179"/><meta><profile value="https://gematik.de/fhir/erp/StructureDefinition/GEM_ERP_PR_MedicationDispense|1.2"/></meta><contained><Medication><id value="0f2cb876-9585-40b0-9783-4b2722061547"/><meta><profile value="https://fhir.kbv.de/StructureDefinition/KBV_PR_ERP_Medication_PZN|1.1.0"/></meta><code><coding><system value="http://fhir.de/CodeSystem/ifa/pzn"/><code value="08585997"/></coding><text value="Prospan® Hustensaft 100ml N1"/></code></Medication></contained><identifier><use value="official"/><system value="https://gematik.de/fhir/erp/NamingSystem/GEM_ERP_NS_PrescriptionId"/><value value="160.100.000.000.002.36"/></identifier><status value="completed"/><medicationReference><reference value="urn:uuid:#0f2cb876-9585-40b0-9783-4b2722061547"/></medicationReference><subject><reference value="urn:uuid:X123456789"/></subject><performer><actor><identifier><system value="https://gematik.de/fhir/sid/telematik-id"/><value value="12345678901234567890"/></identifier></actor></performer><whenHandedOver value="2020-04-16T13:44:27.957000+00:00"/><dosageInstruction><sequence value="1"/><text value="Eine Tablette täglich"/><timing><repeat><frequency value="1"/><period value="1.0"/><periodUnit value="d"/></repeat></timing><doseAndRate><type><coding><code value="ordered"/></coding></type><doseQuantity><value value="1.0"/><unit value="tablet"/></doseQuantity></doseAndRate></dosageInstruction></MedicationDispense></resource></entry></Bundle></resource></entry><entry><fullUrl value="urn:uuid:de7cb9d9-dfbf-46b9-992d-059ca262398f"/><resource><Patient><id value="de7cb9d9-dfbf-46b9-992d-059ca262398f"/><meta><profile value="https://gematik.de/fhir/erp-servicerequest/StructureDefinition/erp-service-request-patient"/></meta><identifier><system value="http://fhir.de/sid/gkv/kvid-10"/><value value="X234567890"/></identifier><name><use value="official"/><family value="Königsstein"><extension url="http://hl7.org/fhir/StructureDefinition/humanname-own-name"><valueString value="Königsstein"/></extension></family><given value="Ludger"/></name><birthDate value="1935-06-22"/><address><type value="both"/><line value="Musterstr. 1"><extension url="http://hl7.org/fhir/StructureDefinition/iso21090-ADXP-houseNumber"><valueString value="1"/></extension><extension url="http://hl7.org/fhir/StructureDefinition/iso21090-ADXP-streetName"><valueString value="Musterstr."/></extension></line><city value="Berlin"/><postalCode value="10623"/></address></Patient></resource></entry><entry><fullUrl value="urn:uuid:19d02f56-5e54-4905-979a-97da1eb04bce"/><resource><Organization><id value="19d02f56-5e54-4905-979a-97da1eb04bce"/><meta><profile value="https://gematik.de/fhir/erp-servicerequest/StructureDefinition/erp-service-request-organization"/><tag><system value="https://gematik.de/fhir/directory/CodeSystem/Origin"/><code value="owner"/></tag></meta><identifier><system value="https://gematik.de/fhir/sid/telematik-id"/><value value="1-431234567"/></identifier><name value="Adler Apotheke"/><address><type value="both"/><line value="Malerstraße. 1"/><city value="Berlin"/><postalCode value="10523"/></address><contact><telecom><system value="phone"/><value value="0305234567"/></telecom><telecom><system value="email"/><value value="apotheke@kim.telematik.de"/></telecom></contact></Organization></resource></entry></Bundle>