{"resourceType":"Bundle","id":"1f2531e0-4e1c-4535-a95a-71681f456ff4","meta":{"profile":["https://gematik.de/fhir/erp-servicerequest/StructureDefinition/erp-service-request-message-container"]},"identifier":{"system":"urn:ietf:rfc:3986","value":"urn:uuid:1f2531e0-4e1c-4535-a95a-71681f456ff4"},"type":"message","timestamp":"2024-10-30T14:38:32.643942+00:00","entry":[{"fullUrl":"urn:uuid:de1e4171-a9e8-4799-a2b7-4e8dd0db27b1","resource":{"resourceType":"MessageHeader","id":"de1e4171-a9e8-4799-a2b7-4e8dd0db27b1","meta":{"profile":["https://gematik.de/fhir/erp-servicerequest/StructureDefinition/erp-service-request-request-header"]},"eventCoding":{"system":"https://gematik.de/fhir/atf/CodeSystem/service-identifier-cs","code":"eRezept_Rezeptanforderung;Abgabeanfrage","display":"Anfrage zur Erfüllung eines Rezeptes und Abgabe des Medikaments"},"destination":[{"name":"Test Apotheke","endpoint":"5-test-telematik-id-apotheke"}],"sender":{"identifier":{"system":"https://gematik.de/fhir/sid/telematik-id","value":"5-test-telematik-id-pflegeinrichtung"},"display":"Pflegeheim Immergrün"},"source":{"name":"HealthCare-Source","software":"HealthCare-Software","version":"1.0.0","contact":{"system":"email","value":"info@hcs.email"},"endpoint":"mailto:healthcare-service@test.kim.de"},"responsible":{"reference":"urn:uuid:f239c693-8a41-45e6-81f7-8397e514d9ef"},"focus":[{"reference":"urn:uuid:50001bc4-70cf-4c69-8b06-5757984e2e95"}]}},{"fullUrl":"urn:uuid:50001bc4-70cf-4c69-8b06-5757984e2e95","resource":{"resourceType":"ServiceRequest","id":"50001bc4-70cf-4c69-8b06-5757984e2e95","meta":{"profile":["https://gematik.de/fhir/erp-servicerequest/StructureDefinition/erp-service-request-dispense-request"]},"identifier":[{"system":"https://gematik.de/fhir/erp-servicerequest/sid/RequestIdentifier","value":"a6dabbb7-be81-4c55-add9-aa30f070d199"},{"system":"https://gematik.de/fhir/erp-servicerequest/sid/ProcedureIdentifier","value":"99124356-d833-4d93-96ae-b0e578458c45"}],"basedOn":[{"reference":"urn:uuid:c0146e6a-8aad-49ec-bd60-eb1664a30986"}],"requisition":{"system":"https://gematik.de/fhir/erp-servicerequest/sid/ProcedureIdentifier","value":"99124356-d833-4d93-96ae-b0e578458c45"},"status":"active","intent":"filler-order","code":{"coding":[{"system":"https://gematik.de/fhir/erp-servicerequest/CodeSystem/service-request-type-cs","code":"dispense-request"}]},"subject":{"reference":"urn:uuid:f91add65-c7a5-4010-8d11-993f7a8a0d33"},"occurrenceDateTime":"2024-10-30T15:38:32.643496+01:00","authoredOn":"2024-10-30T15:38:32.643508+01:00","requester":{"reference":"urn:uuid:7d96144f-c5bf-40b8-9272-fcb3fa5ce3c2"},"performer":[{"identifier":{"system":"http://gematik.de/fhir/sid/KIM-Adresse","value":"Test Apotheke"}}],"note":[{"text":"Bitte wie üblich zur Abholung bereitlegen."}]}},{"fullUrl":"urn:uuid:99124356-d833-4d93-96ae-b0e578458c45","resource":{"resourceType":"ServiceRequest","id":"99124356-d833-4d93-96ae-b0e578458c45","meta":{"profile":["https://gematik.de/fhir/erp-servicerequest/StructureDefinition/erp-service-request-prescription-request"]},"extension":[{"url":"https://gematik.de/fhir/erp-servicerequest/StructureDefinition/eprescription-token-ex","valueIdentifier":{"system":"https://gematik.de/fhir/erp/sid/NamingSystemEPrescriptionToken","value":"Task/160.106.778.696.279/$accept?ac=9aAdee2Bb9cEa6ADf49120fe9f3a6C7d3B8d0bfD7Ef3D02d0dE89d9Dcdc1cBF7"}}],"identifier":[{"system":"https://gematik.de/fhir/erp-servicerequest/sid/RequestIdentifier","value":"a6dabbb7-be81-4c55-add9-aa30f070d199"},{"system":"https://gematik.de/fhir/erp-servicerequest/sid/ProcedureIdentifier","value":"b4da5f81-e5df-48e7-80ca-f2d3dab79cb6"}],"basedOn":[{"reference":"urn:uuid:c0146e6a-8aad-49ec-bd60-eb1664a30986"}],"requisition":{"system":"https://gematik.de/fhir/erp-servicerequest/sid/ProcedureIdentifier","value":"b4da5f81-e5df-48e7-80ca-f2d3dab79cb6"},"status":"completed","intent":"order","code":{"coding":[{"system":"https://gematik.de/fhir/erp-servicerequest/CodeSystem/service-request-type-cs","code":"prescription-request"}]},"orderDetail":[{"coding":[{"system":"https://gematik.de/fhir/erp-servicerequest/CodeSystem/prescription-fullfillment-type-cs","code":"return-to-requester"}]}],"subject":{"reference":"urn:uuid:f91add65-c7a5-4010-8d11-993f7a8a0d33"},"occurrenceDateTime":"2024-10-30T15:38:30.657831+01:00","authoredOn":"2024-10-30T15:38:30.657836+01:00","requester":{"reference":"urn:uuid:7d96144f-c5bf-40b8-9272-fcb3fa5ce3c2"},"performer":[{"identifier":{"system":"http://gematik.de/fhir/sid/KIM-Adresse","value":"practitioner@gluecklich.kim.telematik"}}],"reasonCode":[{"coding":[{"system":"https://gematik.de/fhir/erp-servicerequest/CodeSystem/medication-request-reason-cs","code":"medication-runs-out"}]}],"reasonReference":[{"reference":"urn:uuid:602ecf1d-4a8a-4580-9a9f-071f9a84b165"},{"reference":"urn:uuid:4f9c11c7-e836-46be-aea5-91868e4538d4"}],"note":[{"text":"Medikament läuft am 31.01.2025 aus. Es sind noch 7 stk übrig."}]}},{"fullUrl":"urn:uuid:f239c693-8a41-45e6-81f7-8397e514d9ef","resource":{"resourceType":"Organization","id":"f239c693-8a41-45e6-81f7-8397e514d9ef","meta":{"profile":["https://gematik.de/fhir/erp-servicerequest/StructureDefinition/erp-service-request-organization"]},"identifier":[{"type":{"coding":[{"system":"https://gematik.de/fhir/directory/CodeSystem/EndpointDirectoryConnectionType","code":"kim-2.0"}]},"system":"http://gematik.de/fhir/sid/KIM-Adresse","value":"pflegeheim.immergrün.arzt@sana-pflegeheime.kim.telematik"},{"type":{"coding":[{"system":"http://terminology.hl7.org/CodeSystem/v2-0203","code":"PRN"}]},"system":"https://gematik.de/fhir/sid/telematik-id","value":"1-031234567"},{"type":{"coding":[{"system":"http://terminology.hl7.org/CodeSystem/v2-0203","code":"BSNR"}]},"system":"https://fhir.kbv.de/NamingSystem/KBV_NS_Base_BSNR","value":"031234567"}],"name":"Pflegeheim Immergrün","telecom":[{"system":"phone","value":"0301234567"}],"address":[{"type":"both","line":["Musterstr. 2"],"_line":[{"extension":[{"url":"http://hl7.org/fhir/StructureDefinition/iso21090-ADXP-houseNumber","valueString":"2"},{"url":"http://hl7.org/fhir/StructureDefinition/iso21090-ADXP-streetName","valueString":"Musterstr."}]}],"city":"Berlin","postalCode":"10623"}]}}]}