{"resourceType":"Bundle","id":"3929ba49-4343-4b93-bbc1-ca6ff13bbebc","meta":{"profile":["https://gematik.de/fhir/erp-servicerequest/StructureDefinition/erp-service-request-message-container"]},"identifier":{"system":"urn:ietf:rfc:3986","value":"urn:uuid:3929ba49-4343-4b93-bbc1-ca6ff13bbebc"},"type":"message","timestamp":"2024-10-31T14:53:04.964835+00:00","entry":[{"fullUrl":"urn:uuid:178bc554-ce46-4e7d-ac20-13088ab50af7","resource":{"resourceType":"MessageHeader","id":"178bc554-ce46-4e7d-ac20-13088ab50af7","meta":{"profile":["https://gematik.de/fhir/erp-servicerequest/StructureDefinition/erp-service-request-request-header"]},"eventCoding":{"system":"https://gematik.de/fhir/atf/CodeSystem/service-identifier-cs","code":"eRezept_Rezeptanforderung;Abgabebestaetigung","display":"Bestätigung der Erfüllung und Abgabe eines Medikamentes"},"destination":[{"name":"Pflegeheim Immergrün","endpoint":"5-test-telematik-id-pflegeinrichtung"}],"sender":{"identifier":{"system":"https://gematik.de/fhir/sid/telematik-id","value":"5-test-telematik-id-apotheke"},"display":"Test Apotheke"},"source":{"name":"ApoSoft Gmbh","software":"ApoFlott","version":"1.1.3","contact":{"system":"email","value":"issues@apo-flott.de"},"endpoint":"https://aposoft.de/issues"},"responsible":{"reference":"urn:uuid:1619cd88-6b51-4a60-a432-31a078a4fbf7"},"focus":[{"reference":"urn:uuid:75508c16-a224-4da0-a1b7-acaa08c2ffaa"}]}},{"fullUrl":"urn:uuid:75508c16-a224-4da0-a1b7-acaa08c2ffaa","resource":{"resourceType":"ServiceRequest","id":"75508c16-a224-4da0-a1b7-acaa08c2ffaa","meta":{"profile":["https://gematik.de/fhir/erp-servicerequest/StructureDefinition/erp-service-request-dispense-request"]},"identifier":[{"system":"https://gematik.de/fhir/erp-servicerequest/sid/RequestIdentifier","value":"f1574863-2bd9-4018-a3ff-27cc01f875ad"},{"system":"https://gematik.de/fhir/erp-servicerequest/sid/ProcedureIdentifier","value":"0455ff78-ff45-4c31-8dc4-9415844ad543"}],"basedOn":[{"reference":"uuid:819d6fcd-def7-49a4-bb9b-49dbee04ac1f"}],"requisition":{"system":"https://gematik.de/fhir/erp-servicerequest/sid/ProcedureIdentifier","value":"0455ff78-ff45-4c31-8dc4-9415844ad543"},"status":"completed","intent":"filler-order","priority":"urgent","code":{"coding":[{"system":"https://gematik.de/fhir/erp-servicerequest/CodeSystem/service-request-type-cs","code":"dispense-request"}]},"subject":{"reference":"Patient/92a19c11-7b82-4735-be2b-e78aa685504c"},"occurrenceDateTime":"2024-10-31T15:53:03.836789+01:00","authoredOn":"2024-10-31T15:53:03.836798+01:00","requester":{"reference":"Organization/258ad91c-45bd-4aa0-a161-9e84187c1df6"},"performer":[{"identifier":{"system":"http://gematik.de/fhir/sid/KIM-Adresse","value":"Test Apotheke"}}],"note":[{"time":"2024-10-31T15:53:03.836914+01:00","text":"Bitte wie üblich zur Abholung bereitlegen."}]}},{"fullUrl":"urn:uuid:None","resource":{"resourceType":"Bundle","type":"transaction","entry":[{"fullUrl":"http://erp-servicerequest-test.de/MedicationDispense/8246f9be-acea-4da4-b441-a18185463066","resource":{"resourceType":"MedicationDispense","id":"8246f9be-acea-4da4-b441-a18185463066","meta":{"profile":["https://gematik.de/fhir/erp/StructureDefinition/GEM_ERP_PR_MedicationDispense|1.2"]},"contained":[{"resourceType":"Medication","id":"de7f0e53-3959-4b2e-9f8b-30bc4a599ca7","meta":{"profile":["https://fhir.kbv.de/StructureDefinition/KBV_PR_ERP_Medication_PZN|1.1.0"]},"code":{"coding":[{"system":"http://fhir.de/CodeSystem/ifa/pzn","code":"08585997"}],"text":"Prospan® Hustensaft 100ml N1"}}],"identifier":[{"use":"official","system":"https://gematik.de/fhir/erp/NamingSystem/GEM_ERP_NS_PrescriptionId","value":"160.100.000.000.002.36"}],"status":"completed","medicationReference":{"reference":"urn:uuid:#de7f0e53-3959-4b2e-9f8b-30bc4a599ca7"},"subject":{"reference":"urn:uuid:X123456789"},"performer":[{"actor":{"identifier":{"system":"https://gematik.de/fhir/sid/telematik-id","value":"12345678901234567890"}}}],"whenHandedOver":"2020-04-16T13:44:27.957000+00:00","dosageInstruction":[{"sequence":1,"text":"Eine Tablette täglich","timing":{"repeat":{"frequency":1,"period":1,"periodUnit":"d"}},"doseAndRate":[{"type":{"coding":[{"code":"ordered"}]},"doseQuantity":{"value":1,"unit":"tablet"}}]}]}}]}},{"fullUrl":"urn:uuid:92a19c11-7b82-4735-be2b-e78aa685504c","resource":{"resourceType":"Patient","id":"92a19c11-7b82-4735-be2b-e78aa685504c","meta":{"profile":["https://gematik.de/fhir/erp-servicerequest/StructureDefinition/erp-service-request-patient"]},"identifier":[{"system":"http://fhir.de/sid/gkv/kvid-10","value":"X234567890"}],"name":[{"use":"official","family":"Königsstein","_family":{"extension":[{"url":"http://hl7.org/fhir/StructureDefinition/humanname-own-name","valueString":"Königsstein"}]},"given":["Ludger"]}],"birthDate":"1935-06-22","address":[{"type":"both","line":["Musterstr. 1"],"_line":[{"extension":[{"url":"http://hl7.org/fhir/StructureDefinition/iso21090-ADXP-houseNumber","valueString":"1"},{"url":"http://hl7.org/fhir/StructureDefinition/iso21090-ADXP-streetName","valueString":"Musterstr."}]}],"city":"Berlin","postalCode":"10623"}]}},{"fullUrl":"urn:uuid:1619cd88-6b51-4a60-a432-31a078a4fbf7","resource":{"resourceType":"Organization","id":"1619cd88-6b51-4a60-a432-31a078a4fbf7","meta":{"profile":["https://gematik.de/fhir/erp-servicerequest/StructureDefinition/erp-service-request-organization"],"tag":[{"system":"https://gematik.de/fhir/directory/CodeSystem/Origin","code":"owner"}]},"identifier":[{"system":"https://gematik.de/fhir/sid/telematik-id","value":"1-431234567"}],"name":"Adler Apotheke","address":[{"type":"both","line":["Malerstraße. 1"],"city":"Berlin","postalCode":"10523"}],"contact":[{"telecom":[{"system":"phone","value":"0305234567"},{"system":"email","value":"apotheke@kim.telematik.de"}]}]}}]}