<?xml version='1.0' encoding='utf-8'?>
<Bundle xmlns="http://hl7.org/fhir"><id value="b19cf46b-5be0-467d-8683-40ce0a2b227b"/><meta><profile value="https://gematik.de/fhir/erp-servicerequest/StructureDefinition/erp-service-request-message-container"/></meta><identifier><system value="urn:ietf:rfc:3986"/><value value="urn:uuid:b19cf46b-5be0-467d-8683-40ce0a2b227b"/></identifier><type value="message"/><timestamp value="2024-11-01T14:40:52.317809+00:00"/><entry><fullUrl value="urn:uuid:276801d3-964f-4a4b-aee1-e66c5659f393"/><resource><MessageHeader><id value="276801d3-964f-4a4b-aee1-e66c5659f393"/><meta><profile value="https://gematik.de/fhir/erp-servicerequest/StructureDefinition/erp-service-request-request-header"/></meta><eventCoding><system value="https://gematik.de/fhir/atf/CodeSystem/service-identifier-cs"/><code value="eRezept_Rezeptanforderung;Rezeptanfrage"/><display value="Anfrage an einen Arzt ein Rezept auszustellen"/></eventCoding><destination><name value="Praxis Hans Topp-Glücklich"/><endpoint value="mailto:practitioner@test.kim.de"/></destination><sender><identifier><system value="https://gematik.de/fhir/sid/telematik-id"/><value value="5-test-telematik-id-pflegeinrichtung"/></identifier><display value="Pflegeheim Immergrün"/></sender><source><name value="HealthCare-Source"/><software value="HealthCare-Software"/><version value="1.0.0"/><contact><system value="email"/><value value="info@hcs.email"/></contact><endpoint value="mailto:healthcare-service@test.kim.de"/></source><responsible><reference value="urn:uuid:13cbe426-b7fe-4280-94e2-efb3038682c0"/></responsible><focus><reference value="urn:uuid:6293e0d2-0ebb-4694-8c3d-28c764eed685"/></focus></MessageHeader></resource></entry><entry><fullUrl value="urn:uuid:6293e0d2-0ebb-4694-8c3d-28c764eed685"/><resource><ServiceRequest><id value="6293e0d2-0ebb-4694-8c3d-28c764eed685"/><meta><profile value="https://gematik.de/fhir/erp-servicerequest/StructureDefinition/erp-service-request-prescription-request"/></meta><identifier><system value="https://gematik.de/fhir/erp-servicerequest/sid/RequestIdentifier"/><value value="8ddc6c37-cddb-496d-a526-bb1e67b1c87e"/></identifier><identifier><system value="https://gematik.de/fhir/erp-servicerequest/sid/ProcedureIdentifier"/><value value="be9914fe-5356-44e9-9713-14e3765aea17"/></identifier><basedOn><reference value="uuid:b2fa6577-692e-463b-97ee-18e43ad45e50"/></basedOn><requisition><system value="https://gematik.de/fhir/erp-servicerequest/sid/ProcedureIdentifier"/><value value="be9914fe-5356-44e9-9713-14e3765aea17"/></requisition><status value="active"/><intent value="order"/><priority value="urgent"/><code><coding><system value="https://gematik.de/fhir/erp-servicerequest/CodeSystem/service-request-type-cs"/><code value="prescription-request"/></coding></code><orderDetail><coding><system value="https://gematik.de/fhir/erp-servicerequest/CodeSystem/prescription-fullfillment-type-cs"/><code value="return-to-requester"/></coding></orderDetail><subject><reference value="Patient/1ea4d05a-0092-45d6-b83e-50665d3c0ccf"/></subject><occurrenceDateTime value="2024-11-01T15:40:52.317287+01:00"/><authoredOn value="2024-11-01T15:40:52.317289+01:00"/><requester><reference value="Organization/13cbe426-b7fe-4280-94e2-efb3038682c0"/></requester><performer><identifier><system value="http://gematik.de/fhir/sid/KIM-Adresse"/><value value="practitioner@gluecklich.kim.telematik"/></identifier></performer><reasonCode><extension url="https://gematik.de/fhir/erp-servicerequest/StructureDefinition/remaining-supply-ex"><valueQuantity><value value="7.0"/><unit value="Stück"/></valueQuantity></extension><coding><system value="https://gematik.de/fhir/erp-servicerequest/CodeSystem/medication-request-reason-cs"/><code value="exhausted-range"/></coding><text value="Medikament läuft am 31.01.2025 aus. Es sind noch 7 stk übrig."/></reasonCode><reasonReference><reference value="uuid:96f1532a-c137-400c-9c35-0b83b76fab35"/></reasonReference><reasonReference><reference value="uuid:25f69830-5c26-41ab-8629-b6b30ec7da3f"/></reasonReference><note><time value="2024-11-01T15:40:52.317483+01:00"/><text value="Wird weiterhin benötigt, bitte um Verlängerung."/></note></ServiceRequest></resource></entry><entry><fullUrl value="urn:uuid:9b6c279f-c3ea-4d9a-a443-06ac3f916ef8"/><resource><Medication><id value="9b6c279f-c3ea-4d9a-a443-06ac3f916ef8"/><meta><profile value="https://fhir.kbv.de/StructureDefinition/KBV_PR_ERP_Medication_PZN|1.1.0"/></meta><extension url="https://fhir.kbv.de/StructureDefinition/KBV_EX_Base_Medication_Type"><valueCodeableConcept><coding><system value="http://snomed.info/sct"/><version value="http://snomed.info/sct/900000000000207008/version/20220331"/><code value="763158003"/><display value="Medicinal product (product)"/></coding></valueCodeableConcept></extension><extension url="https://fhir.kbv.de/StructureDefinition/KBV_EX_ERP_Medication_Category"><valueCoding><system value="https://fhir.kbv.de/CodeSystem/KBV_CS_ERP_Medication_Category"/><code value="00"/></valueCoding></extension><extension url="https://fhir.kbv.de/StructureDefinition/KBV_EX_ERP_Medication_Vaccine"><valueBoolean value="false"/></extension><extension url="http://fhir.de/StructureDefinition/normgroesse"><valueCode value="N1"/></extension><code><coding><system value="http://fhir.de/CodeSystem/ifa/pzn"/><code value="08585997"/></coding><text value="Prospan® Hustensaft 100ml"/></code><form><coding><system value="https://fhir.kbv.de/CodeSystem/KBV_CS_SFHIR_KBV_DARREICHUNGSFORM"/><code value="FLE"/></coding></form></Medication></resource></entry><entry><fullUrl value="urn:uuid:1ea4d05a-0092-45d6-b83e-50665d3c0ccf"/><resource><Patient><id value="1ea4d05a-0092-45d6-b83e-50665d3c0ccf"/><meta><profile value="https://gematik.de/fhir/erp-servicerequest/StructureDefinition/erp-service-request-patient"/></meta><identifier><system value="http://fhir.de/sid/gkv/kvid-10"/><value value="X234567890"/></identifier><name><use value="official"/><family value="Königsstein"><extension url="http://hl7.org/fhir/StructureDefinition/humanname-own-name"><valueString value="Königsstein"/></extension></family><given value="Ludger"/></name><birthDate value="1935-06-22"/><address><type value="both"/><line value="Musterstr. 1"><extension url="http://hl7.org/fhir/StructureDefinition/iso21090-ADXP-houseNumber"><valueString value="1"/></extension><extension url="http://hl7.org/fhir/StructureDefinition/iso21090-ADXP-streetName"><valueString value="Musterstr."/></extension></line><city value="Berlin"/><postalCode value="10623"/></address></Patient></resource></entry><entry><fullUrl value="urn:uuid:b2fa6577-692e-463b-97ee-18e43ad45e50"/><resource><MedicationRequest><id value="b2fa6577-692e-463b-97ee-18e43ad45e50"/><meta><profile value="https://gematik.de/fhir/erp-servicerequest/StructureDefinition/erp-service-request-medication-request"/></meta><extension url="https://gematik.de/fhir/erp-servicerequest/StructureDefinition/prescription-id-ex"><valueIdentifier><system value="https://gematik.de/fhir/erp/NamingSystem/GEM_ERP_NS_PrescriptionId"/><value value="160.100.000.000.001.36"/></valueIdentifier></extension><status value="active"/><intent value="order"/><medicationReference><reference value="urn:uuid:9b6c279f-c3ea-4d9a-a443-06ac3f916ef8"/></medicationReference><subject><reference value="urn:uuid:1ea4d05a-0092-45d6-b83e-50665d3c0ccf"/></subject><authoredOn value="2024-11-01T15:40:52.316771+01:00"/><dosageInstruction><text value="2mal tägl. 5ml"/></dosageInstruction><dispenseRequest><quantity><value value="1.0"/><system value="http://unitsofmeasure.org"/><code value="{Package}"/></quantity></dispenseRequest></MedicationRequest></resource></entry><entry><fullUrl value="urn:uuid:13cbe426-b7fe-4280-94e2-efb3038682c0"/><resource><Organization><id value="13cbe426-b7fe-4280-94e2-efb3038682c0"/><meta><profile value="https://gematik.de/fhir/erp-servicerequest/StructureDefinition/erp-service-request-organization"/><tag><system value="https://gematik.de/fhir/directory/CodeSystem/Origin"/><code value="owner"/></tag></meta><identifier><system value="https://gematik.de/fhir/sid/telematik-id"/><value value="1-031234567"/></identifier><name value="Pflegeheim Immergrün"/><address><type value="both"/><line value="Musterstr. 2"/><city value="Berlin"/><postalCode value="10623"/></address><contact><telecom><system value="phone"/><value value="0301234567"/></telecom><telecom><system value="email"/><value value="pflegeheim.immergrün.arzt@sana-pflegeheime.kim.telematik"/></telecom></contact></Organization></resource></entry><entry><fullUrl value="urn:uuid:96f1532a-c137-400c-9c35-0b83b76fab35"/><resource><Observation><id value="96f1532a-c137-400c-9c35-0b83b76fab35"/><meta><profile value="https://gematik.de/fhir/erp-servicerequest/StructureDefinition/erp-service-request-remaining-medication"/></meta><status value="final"/><code><coding><system value="https://gematik.de/fhir/erp-servicerequest/CodeSystem/medication-observation-cs"/><code value="range-of-medication"/></coding></code><subject><reference value="urn:uuid:1ea4d05a-0092-45d6-b83e-50665d3c0ccf"/></subject><valueDateTime value="2023-01-31"/></Observation></resource></entry><entry><fullUrl value="urn:uuid:25f69830-5c26-41ab-8629-b6b30ec7da3f"/><resource><Observation><id value="25f69830-5c26-41ab-8629-b6b30ec7da3f"/><meta><profile value="https://gematik.de/fhir/erp-servicerequest/StructureDefinition/erp-service-request-remaining-medication"/></meta><status value="final"/><code><coding><system value="https://gematik.de/fhir/erp-servicerequest/CodeSystem/medication-observation-cs"/><code value="range-of-medication"/></coding></code><subject><reference value="urn:uuid:1ea4d05a-0092-45d6-b83e-50665d3c0ccf"/></subject><valueQuantity><value value="7.0"/><unit value="stk"/></valueQuantity></Observation></resource></entry></Bundle>