<?xml version='1.0' encoding='utf-8'?>
<Bundle xmlns="http://hl7.org/fhir"><id value="6e0da5bc-ce7b-44cc-a301-6ad067b1b47d"/><meta><profile value="https://gematik.de/fhir/atf/StructureDefinition/bundle-app-transport-framework"/></meta><identifier><system value="urn:ietf:rfc:3986"/><value value="urn:uuid:6e0da5bc-ce7b-44cc-a301-6ad067b1b47d"/></identifier><type value="message"/><timestamp value="2024-10-30T12:46:26.436684+00:00"/><entry><fullUrl value="urn:uuid:86e0e08e-d39f-4a43-a3be-cf79fbf6f792"/><resource><MessageHeader><id value="86e0e08e-d39f-4a43-a3be-cf79fbf6f792"/><meta><profile value="https://gematik.de/fhir/atf/StructureDefinition/message-header-app-transport"/></meta><eventCoding><system value="https://gematik.de/fhir/atf/CodeSystem/service-identifier-cs"/><code value="eRezept_Rezeptanforderung;Abgabeanfrage"/><display value="Anfrage zur Erfüllung eines Rezeptes und Abgabe des Medikaments"/></eventCoding><destination><name value="Test Apotheke"/><endpoint value="mailto:pharmacy@test.kim.de"/></destination><sender><identifier><system value="http://gematik.de/fhir/sid/KIM-Adresse"/><value value="mailto:healthcare-service@test.kim.de"/></identifier><display value="Pflegeheim Immergrün"/></sender><source><name value="HealthCare-Source"/><software value="HealthCare-Software"/><version value="1.0.0"/><contact><system value="email"/><value value="info@hcs.email"/></contact><endpoint value="https://ps_solutions.com/jira_helpdesk"/></source><responsible><reference value="urn:uuid:ff3c3730-9c48-474a-84f2-5723788c44d7"/></responsible><focus><reference value="urn:uuid:43903732-6d46-4a50-a529-992de3818d44"/></focus></MessageHeader></resource></entry><entry><fullUrl value="urn:uuid:43903732-6d46-4a50-a529-992de3818d44"/><resource><ServiceRequest><id value="43903732-6d46-4a50-a529-992de3818d44"/><meta><profile value="https://gematik.de/fhir/erp-servicerequest/StructureDefinition/erp-service-request-dispense-request"/></meta><identifier><system value="https://gematik.de/fhir/erp-servicerequest/sid/RequestIdentifier"/><value value="3a0b434f-45b3-4859-a689-44da2a681851"/></identifier><identifier><system value="https://gematik.de/fhir/erp-servicerequest/sid/NamingSystemPreDisIdentifier"/><value value="e9a40715-e7c4-4792-8ff5-b35a4fad4b08"/></identifier><identifier><system value="https://gematik.de/fhir/erp-servicerequest/sid/ProcedureIdentifier"/><value value="43ddfb34-8f0d-4528-be48-425439262f3a"/></identifier><basedOn><reference value="urn:uuid:a2557af2-cd05-406e-9492-2fb74eabc9c1"/></basedOn><requisition><system value="https://gematik.de/fhir/erp-servicerequest/sid/ProcedureIdentifier"/><value value="43ddfb34-8f0d-4528-be48-425439262f3a"/></requisition><status value="active"/><intent value="filler-order"/><code><coding><system value="https://gematik.de/fhir/erp-servicerequest/CodeSystem/service-request-type-cs"/><code value="dispense-request"/></coding></code><subject><reference value="urn:uuid:ef442bf2-5a2d-4b33-acf5-47d0eda37b10"/></subject><occurrenceDateTime value="2024-10-30T13:46:26.436143+01:00"/><authoredOn value="2024-10-30T13:46:26.436150+01:00"/><requester><reference value="urn:uuid:b6cbf08e-1a44-4087-8fa1-9ab1fea52be1"/></requester><performer><identifier><system value="http://gematik.de/fhir/sid/KIM-Adresse"/><value value="Test Apotheke"/></identifier></performer><note><text value="Bitte wie üblich zur Abholung bereitlegen."/></note></ServiceRequest></resource></entry><entry><fullUrl value="urn:uuid:43ddfb34-8f0d-4528-be48-425439262f3a"/><resource><ServiceRequest><id value="43ddfb34-8f0d-4528-be48-425439262f3a"/><meta><profile value="https://gematik.de/fhir/erp-servicerequest/StructureDefinition/erp-service-request-prescription-request"/></meta><extension url="https://gematik.de/fhir/erp-servicerequest/StructureDefinition/eprescription-token-ex"><valueIdentifier><system value="https://gematik.de/fhir/erp/sid/NamingSystemEPrescriptionToken"/><value value="Task/160.162.434.495.774/$accept?ac=376AE5B17d3C07c0a7cCf27dEBA0BeCc3d5C3b07fFB8B0dDA7B1D73D6E5bcFe7"/></valueIdentifier></extension><identifier><system value="https://gematik.de/fhir/erp-servicerequest/sid/RequestIdentifier"/><value value="3a0b434f-45b3-4859-a689-44da2a681851"/></identifier><identifier><system value="https://gematik.de/fhir/erp-servicerequest/sid/NamingSystemPreDisIdentifier"/><value value="e9a40715-e7c4-4792-8ff5-b35a4fad4b08"/></identifier><identifier><system value="https://gematik.de/fhir/erp-servicerequest/sid/ProcedureIdentifier"/><value value="223dc422-7e1b-4300-a543-5d0302fcb82c"/></identifier><basedOn><reference value="urn:uuid:a2557af2-cd05-406e-9492-2fb74eabc9c1"/></basedOn><requisition><system value="https://gematik.de/fhir/erp-servicerequest/sid/ProcedureIdentifier"/><value value="223dc422-7e1b-4300-a543-5d0302fcb82c"/></requisition><status value="completed"/><intent value="order"/><code><coding><system value="https://gematik.de/fhir/erp-servicerequest/CodeSystem/service-request-type-cs"/><code value="prescription-request"/></coding></code><orderDetail><coding><system value="https://gematik.de/fhir/erp-servicerequest/CodeSystem/prescription-fullfillment-type-cs"/><code value="return-to-requester"/></coding></orderDetail><subject><reference value="urn:uuid:ef442bf2-5a2d-4b33-acf5-47d0eda37b10"/></subject><occurrenceDateTime value="2024-10-30T13:46:24.707405+01:00"/><authoredOn value="2024-10-30T13:46:24.707411+01:00"/><requester><reference value="urn:uuid:b6cbf08e-1a44-4087-8fa1-9ab1fea52be1"/></requester><performer><identifier><system value="http://gematik.de/fhir/sid/KIM-Adresse"/><value value="practitioner@gluecklich.kim.telematik"/></identifier></performer><reasonCode><coding><system value="https://gematik.de/fhir/erp-servicerequest/CodeSystem/medication-request-reason-cs"/><code value="medication-runs-out"/></coding></reasonCode><reasonReference><reference value="urn:uuid:e6860f74-225f-4047-a12d-69d4d60c5b8f"/></reasonReference><reasonReference><reference value="urn:uuid:cf7a826b-1a90-4a49-a77c-f5d144be5933"/></reasonReference><note><text value="Medikament läuft am 31.01.2025 aus. Es sind noch 7 stk übrig."/></note></ServiceRequest></resource></entry><entry><fullUrl value="urn:uuid:ff3c3730-9c48-474a-84f2-5723788c44d7"/><resource><Organization><id value="ff3c3730-9c48-474a-84f2-5723788c44d7"/><meta><profile value="https://gematik.de/fhir/erp-servicerequest/StructureDefinition/erp-service-request-organization"/></meta><identifier><type><coding><system value="https://gematik.de/fhir/directory/CodeSystem/EndpointDirectoryConnectionType"/><code value="kim-2.0"/></coding></type><system value="http://gematik.de/fhir/sid/KIM-Adresse"/><value value="pflegeheim.immergrün.arzt@sana-pflegeheime.kim.telematik"/></identifier><identifier><type><coding><system value="http://terminology.hl7.org/CodeSystem/v2-0203"/><code value="PRN"/></coding></type><system value="https://gematik.de/fhir/sid/telematik-id"/><value value="1-031234567"/></identifier><identifier><type><coding><system value="http://terminology.hl7.org/CodeSystem/v2-0203"/><code value="BSNR"/></coding></type><system value="https://fhir.kbv.de/NamingSystem/KBV_NS_Base_BSNR"/><value value="031234567"/></identifier><name value="Pflegeheim Immergrün"/><telecom><system value="phone"/><value value="0301234567"/></telecom><address><type value="both"/><line value="Musterstr. 2"><extension url="http://hl7.org/fhir/StructureDefinition/iso21090-ADXP-houseNumber"><valueString value="2"/></extension><extension url="http://hl7.org/fhir/StructureDefinition/iso21090-ADXP-streetName"><valueString value="Musterstr."/></extension></line><city value="Berlin"/><postalCode value="10623"/></address></Organization></resource></entry></Bundle>