{
    "id": "874fbde9-1263-4669-8b91-a4d83b085769",
    "meta": {
        "profile": [
            "https://gematik.de/fhir/atf/StructureDefinition/bundle-app-transport-framework"
        ]
    },
    "entry": [
        {
            "fullUrl": "urn:uuid:f65d762c-d275-4f7f-93fc-e1f925c8ada9",
            "resource": {
                "id": "f65d762c-d275-4f7f-93fc-e1f925c8ada9",
                "meta": {
                    "profile": [
                        "https://gematik.de/fhir/atf/StructureDefinition/message-header-app-transport"
                    ]
                },
                "destination": [
                    {
                        "endpoint": "http://www.arztpraxis.hasenbein@test.de",
                        "receiver": {
                            "display": "Arztpraxis",
                            "identifier": {
                                "system": "http://gematik.de/fhir/sid/KIM-Adresse",
                                "value": "praxis.hasenbein@gluecklich.kim.telematik"
                            }
                        }
                    }
                ],
                "eventCoding": {
                    "code": "eRezept_Rezeptanforderung;Rezeptanfrage_Storno",
                    "display": "Abbruch der Rezeptanfrage",
                    "system": "https://gematik.de/fhir/atf/CodeSystem/service-identifier-cs"
                },
                "focus": [
                    {
                        "reference": "urn:uuid:89f585b4-f890-4ef5-b56a-9dc9370b710d"
                    }
                ],
                "sender": {
                    "display": "Pflegeeinrichtung Immergrün",
                    "identifier": {
                        "system": "http://gematik.de/fhir/sid/KIM-Adresse",
                        "value": "pflegeheim.immergrün.arzt@sana-pflegeheime.kim.telematik"
                    }
                },
                "source": {
                    "contact": {
                        "system": "email",
                        "value": "dev@ps_solutions.de"
                    },
                    "endpoint": "https://ps_solutions.com/jira_helpdesk",
                    "name": "PSSolutions",
                    "software": "Globotron 500",
                    "version": "2.1.3"
                },
                "resourceType": "MessageHeader"
            }
        },
        {
            "fullUrl": "urn:uuid:89f585b4-f890-4ef5-b56a-9dc9370b710d",
            "resource": {
                "id": "89f585b4-f890-4ef5-b56a-9dc9370b710d",
                "meta": {
                    "profile": [
                        "https://gematik.de/fhir/erp-servicerequest/StructureDefinition/erp-service-request-prescription-request"
                    ]
                },
                "authoredOn": "2023-06-30T14:09:34.465397+02:00",
                "basedOn": [
                    {
                        "reference": "urn:uuid:36e02f7d-fab0-48c9-998c-6a5a11d3334d"
                    }
                ],
                "code": {
                    "coding": [
                        {
                            "code": "prescription-request",
                            "system": "https://gematik.de/fhir/erp-servicerequest/CodeSystem/service-request-type-cs"
                        }
                    ]
                },
                "identifier": [
                    {
                        "system": "https://gematik.de/fhir/erp-servicerequest/sid/NamingSystemRequestIdentifier",
                        "value": "44a1c934-19c3-479a-928c-b0a75ea347d9"
                    },
                    {
                        "system": "https://gematik.de/fhir/erp-servicerequest/sid/NamingSystemPreDisIdentifier",
                        "value": "d5925fb6-4271-4ed0-8a70-ec605640104d"
                    },
                    {
                        "system": "https://gematik.de/fhir/erp-servicerequest/sid/NamingSystemProcedureIdentifier",
                        "value": "744edce8-7638-4dbe-abea-55d2c20ee557"
                    }
                ],
                "intent": "order",
                "note": [
                    {
                        "text": "Patient verstorben"
                    }
                ],
                "occurrenceDateTime": "2023-06-30T14:09:34.465395+02:00",
                "orderDetail": [
                    {
                        "coding": [
                            {
                                "code": "return-to-requester",
                                "system": "https://gematik.de/fhir/erp-servicerequest/CodeSystem/prescription-fullfillment-type-cs"
                            }
                        ]
                    }
                ],
                "performer": [
                    {
                        "identifier": {
                            "system": "http://gematik.de/fhir/sid/KIM-Adresse",
                            "value": "practitioner@gluecklich.kim.telematik"
                        }
                    }
                ],
                "reasonCode": [
                    {
                        "coding": [
                            {
                                "code": "medication-stopped",
                                "system": "https://gematik.de/fhir/erp-servicerequest/CodeSystem/cancellation-reason-cs"
                            }
                        ]
                    }
                ],
                "reasonReference": [
                    {
                        "reference": "urn:uuid:Medication-Runs-Out-Example-dateTime"
                    },
                    {
                        "reference": "urn:uuid:Medication-Runs-Out-Example-Quantity"
                    }
                ],
                "requester": {
                    "reference": "urn:uuid:88a3c160-e5b1-4549-8d8c-d906b2216ca7"
                },
                "requisition": {
                    "system": "https://gematik.de/fhir/erp-servicerequest/sid/NamingSystemProcedureIdentifier",
                    "value": "744edce8-7638-4dbe-abea-55d2c20ee557"
                },
                "status": "revoked",
                "subject": {
                    "reference": "urn:uuid:f664e343-95ac-42a8-b5eb-2ec9532f893c"
                },
                "resourceType": "ServiceRequest"
            }
        },
        {
            "fullUrl": "urn:uuid:e6220050-a287-4a32-811d-8c5f67dcaae9",
            "resource": {
                "id": "e6220050-a287-4a32-811d-8c5f67dcaae9",
                "meta": {
                    "profile": [
                        "https://fhir.kbv.de/StructureDefinition/KBV_PR_ERP_Medication_PZN|1.1.0"
                    ]
                },
                "extension": [
                    {
                        "url": "https://fhir.kbv.de/StructureDefinition/KBV_EX_Base_Medication_Type",
                        "valueCodeableConcept": {
                            "coding": [
                                {
                                    "code": "763158003",
                                    "display": "Medicinal product (product)",
                                    "system": "http://snomed.info/sct",
                                    "version": "http://snomed.info/sct/900000000000207008/version/20220331"
                                }
                            ]
                        }
                    },
                    {
                        "url": "https://fhir.kbv.de/StructureDefinition/KBV_EX_ERP_Medication_Category",
                        "valueCoding": {
                            "code": "00",
                            "system": "https://fhir.kbv.de/CodeSystem/KBV_CS_ERP_Medication_Category"
                        }
                    },
                    {
                        "url": "https://fhir.kbv.de/StructureDefinition/KBV_EX_ERP_Medication_Vaccine",
                        "valueBoolean": false
                    },
                    {
                        "url": "http://fhir.de/StructureDefinition/normgroesse",
                        "valueCode": "N1"
                    }
                ],
                "code": {
                    "coding": [
                        {
                            "code": "08585997",
                            "system": "http://fhir.de/CodeSystem/ifa/pzn"
                        }
                    ],
                    "text": "Prospan® Hustensaft 100ml"
                },
                "form": {
                    "coding": [
                        {
                            "code": "FLE",
                            "system": "https://fhir.kbv.de/CodeSystem/KBV_CS_SFHIR_KBV_DARREICHUNGSFORM"
                        }
                    ]
                },
                "resourceType": "Medication"
            }
        },
        {
            "fullUrl": "urn:uuid:0e6b3ec9-212a-41a7-945b-f301c11c23c6",
            "resource": {
                "id": "0e6b3ec9-212a-41a7-945b-f301c11c23c6",
                "meta": {
                    "profile": [
                        "https://fhir.kbv.de/StructureDefinition/KBV_PR_FOR_Patient|1.1.0"
                    ]
                },
                "address": [
                    {
                        "city": "Berlin",
                        "line": [
                            "Musterstr. 1"
                        ],
                        "_line": [
                            {
                                "extension": [
                                    {
                                        "url": "http://hl7.org/fhir/StructureDefinition/iso21090-ADXP-houseNumber",
                                        "valueString": "1"
                                    },
                                    {
                                        "url": "http://hl7.org/fhir/StructureDefinition/iso21090-ADXP-streetName",
                                        "valueString": "Musterstr."
                                    }
                                ]
                            }
                        ],
                        "postalCode": "10623",
                        "type": "both"
                    }
                ],
                "birthDate": "1935-06-22",
                "identifier": [
                    {
                        "system": "http://fhir.de/sid/gkv/kvid-10",
                        "type": {
                            "coding": [
                                {
                                    "code": "GKV",
                                    "system": "http://fhir.de/CodeSystem/identifier-type-de-basis"
                                }
                            ]
                        },
                        "value": "X234567890"
                    }
                ],
                "name": [
                    {
                        "family": "Königsstein",
                        "_family": {
                            "extension": [
                                {
                                    "url": "http://hl7.org/fhir/StructureDefinition/humanname-own-name",
                                    "valueString": "Königsstein"
                                }
                            ]
                        },
                        "given": [
                            "Ludger"
                        ],
                        "use": "official"
                    }
                ],
                "resourceType": "Patient"
            }
        },
        {
            "fullUrl": "urn:uuid:1a036891e4f843cc89230b6d321af7f9",
            "resource": {
                "id": "1a036891e4f843cc89230b6d321af7f9",
                "meta": {
                    "profile": [
                        "https://gematik.de/fhir/erp-servicerequest/StructureDefinition/erp-service-request-medication-request"
                    ]
                },
                "extension": [
                    {
                        "url": "https://gematik.de/fhir/erp-servicerequest/StructureDefinition/prescription-id-ex",
                        "valueIdentifier": {
                            "system": "https://gematik.de/fhir/erp/NamingSystem/GEM_ERP_NS_PrescriptionId",
                            "value": "160.100.000.000.001.36"
                        }
                    }
                ],
                "authoredOn": "2023-06-30T14:09:34.464789+02:00",
                "dispenseRequest": {
                    "quantity": {
                        "code": "{Package}",
                        "system": "http://unitsofmeasure.org",
                        "value": 1
                    }
                },
                "dosageInstruction": [
                    {
                        "text": "2mal tägl. 5ml"
                    }
                ],
                "intent": "order",
                "medicationReference": {
                    "reference": "urn:uuid:e6220050-a287-4a32-811d-8c5f67dcaae9"
                },
                "status": "active",
                "subject": {
                    "reference": "urn:uuid:0e6b3ec9-212a-41a7-945b-f301c11c23c6"
                },
                "substitution": {
                    "allowedBoolean": true
                },
                "resourceType": "MedicationRequest"
            }
        },
        {
            "fullUrl": "urn:uuid:7f1a5a50837a41b1aa3b30010655b501",
            "resource": {
                "id": "7f1a5a50837a41b1aa3b30010655b501",
                "meta": {
                    "profile": [
                        "https://gematik.de/fhir/erp-servicerequest/StructureDefinition/erp-service-request-organization"
                    ]
                },
                "address": [
                    {
                        "city": "Berlin",
                        "line": [
                            "Musterstr. 2"
                        ],
                        "_line": [
                            {
                                "extension": [
                                    {
                                        "url": "http://hl7.org/fhir/StructureDefinition/iso21090-ADXP-houseNumber",
                                        "valueString": "2"
                                    },
                                    {
                                        "url": "http://hl7.org/fhir/StructureDefinition/iso21090-ADXP-streetName",
                                        "valueString": "Musterstr."
                                    }
                                ]
                            }
                        ],
                        "postalCode": "10623",
                        "type": "both"
                    }
                ],
                "identifier": [
                    {
                        "system": "http://gematik.de/fhir/sid/KIM-Adresse",
                        "type": {
                            "coding": [
                                {
                                    "code": "kim-2.0",
                                    "system": "https://gematik.de/fhir/directory/CodeSystem/EndpointDirectoryConnectionType"
                                }
                            ]
                        },
                        "value": "pflegeheim.immergrün.arzt@sana-pflegeheime.kim.telematik"
                    },
                    {
                        "system": "https://gematik.de/fhir/sid/telematik-id",
                        "type": {
                            "coding": [
                                {
                                    "code": "PRN",
                                    "system": "http://terminology.hl7.org/CodeSystem/v2-0203"
                                }
                            ]
                        },
                        "value": "1-031234567"
                    },
                    {
                        "system": "https://fhir.kbv.de/NamingSystem/KBV_NS_Base_BSNR",
                        "type": {
                            "coding": [
                                {
                                    "code": "BSNR",
                                    "system": "http://terminology.hl7.org/CodeSystem/v2-0203"
                                }
                            ]
                        },
                        "value": "031234567"
                    }
                ],
                "name": "Pflegeheim Immergrün",
                "telecom": [
                    {
                        "system": "phone",
                        "value": "0301234567"
                    }
                ],
                "resourceType": "Organization"
            }
        },
        {
            "fullUrl": "urn:uuid:Medication-Runs-Out-Example-dateTime",
            "resource": {
                "id": "Medication-Runs-Out-Example-dateTime",
                "meta": {
                    "profile": [
                        "https://gematik.de/fhir/erp-servicerequest/StructureDefinition/erp-service-request-remaining-medication"
                    ]
                },
                "code": {
                    "coding": [
                        {
                            "code": "range-of-medication",
                            "system": "https://gematik.de/fhir/erp-servicerequest/CodeSystem/medication-observation-cs"
                        }
                    ]
                },
                "status": "final",
                "subject": {
                    "reference": "Patient/Example-Patient"
                },
                "valueDateTime": "2023-01-31",
                "resourceType": "Observation"
            }
        },
        {
            "fullUrl": "urn:uuid:Medication-Runs-Out-Example-Quantity",
            "resource": {
                "id": "Medication-Runs-Out-Example-Quantity",
                "meta": {
                    "profile": [
                        "https://gematik.de/fhir/erp-servicerequest/StructureDefinition/erp-service-request-remaining-medication"
                    ]
                },
                "code": {
                    "coding": [
                        {
                            "code": "range-of-medication",
                            "system": "https://gematik.de/fhir/erp-servicerequest/CodeSystem/medication-observation-cs"
                        }
                    ]
                },
                "status": "final",
                "subject": {
                    "reference": "Patient/Example-Patient"
                },
                "valueQuantity": {
                    "unit": "stk",
                    "value": 7
                },
                "resourceType": "Observation"
            }
        }
    ],
    "identifier": {
        "system": "urn:ietf:rfc:3986",
        "value": "urn:uuid:874fbde9-1263-4669-8b91-a4d83b085769"
    },
    "timestamp": "2023-06-30T12:09:34.465864+00:00",
    "type": "message",
    "resourceType": "Bundle"
}