{
    "id": "b61797a0-636b-4264-a79a-3eeeff3db9a7",
    "meta": {
        "profile": [
            "https://gematik.de/fhir/atf/StructureDefinition/bundle-app-transport-framework"
        ]
    },
    "entry": [
        {
            "fullUrl": "urn:uuid:15a3dc8c-06fa-4a45-b868-cc4b236a8da1",
            "resource": {
                "id": "15a3dc8c-06fa-4a45-b868-cc4b236a8da1",
                "meta": {
                    "profile": [
                        "https://gematik.de/fhir/atf/StructureDefinition/message-header-app-transport"
                    ]
                },
                "destination": [
                    {
                        "endpoint": "http://www.arztpraxis.hasenbein@test.de",
                        "receiver": {
                            "display": "Arztpraxis",
                            "identifier": {
                                "system": "http://gematik.de/fhir/sid/KIM-Adresse",
                                "value": "praxis.hasenbein@gluecklich.kim.telematik"
                            }
                        }
                    }
                ],
                "eventCoding": {
                    "code": "eRezept_Rezeptanforderung;Rezeptanfrage_Storno",
                    "display": "Abbruch der Rezeptanfrage",
                    "system": "https://gematik.de/fhir/atf/CodeSystem/service-identifier-cs"
                },
                "focus": [
                    {
                        "reference": "urn:uuid:82fa808d-0c1d-4478-a50d-490ec9480785"
                    }
                ],
                "sender": {
                    "display": "Pflegeeinrichtung Immergrün",
                    "identifier": {
                        "system": "http://gematik.de/fhir/sid/KIM-Adresse",
                        "value": "pflegeheim.immergrün.arzt@sana-pflegeheime.kim.telematik"
                    }
                },
                "source": {
                    "contact": {
                        "system": "email",
                        "value": "dev@ps_solutions.de"
                    },
                    "endpoint": "https://ps_solutions.com/jira_helpdesk",
                    "name": "PSSolutions",
                    "software": "Globotron 500",
                    "version": "2.1.3"
                },
                "resourceType": "MessageHeader"
            }
        },
        {
            "fullUrl": "urn:uuid:82fa808d-0c1d-4478-a50d-490ec9480785",
            "resource": {
                "id": "82fa808d-0c1d-4478-a50d-490ec9480785",
                "meta": {
                    "profile": [
                        "https://gematik.de/fhir/erp-servicerequest/StructureDefinition/erp-service-request-prescription-request"
                    ]
                },
                "authoredOn": "2023-06-30T00:16:00.703698",
                "basedOn": [
                    {
                        "reference": "47395124-194b-49f0-966e-074914003f30"
                    }
                ],
                "code": {
                    "coding": [
                        {
                            "code": "prescription-request",
                            "system": "https://gematik.de/fhir/erp-servicerequest/CodeSystem/service-request-type-cs"
                        }
                    ]
                },
                "identifier": [
                    {
                        "system": "https://gematik.de/fhir/erp-servicerequest/sid/NamingSystemRequestIdentifier",
                        "value": "dfd9ebde-9b20-40e4-83c7-68727d75d850"
                    },
                    {
                        "system": "https://gematik.de/fhir/erp-servicerequest/sid/NamingSystemPreDisIdentifier",
                        "value": "05b6d950-0b7c-4cae-9629-33af2613ba6a"
                    },
                    {
                        "system": "https://gematik.de/fhir/erp-servicerequest/sid/NamingSystemProcedureIdentifier",
                        "value": "29825e88-d8e7-4be8-bdc4-2001a1bccf83"
                    }
                ],
                "intent": "order",
                "note": [
                    {
                        "text": "Patient verstorben"
                    }
                ],
                "occurrenceDateTime": "2023-06-30T00:16:00.703696",
                "orderDetail": [
                    {
                        "coding": [
                            {
                                "code": "return-to-requester",
                                "system": "https://gematik.de/fhir/erp-servicerequest/CodeSystem/prescription-fullfillment-type-cs"
                            }
                        ]
                    }
                ],
                "performer": [
                    {
                        "identifier": {
                            "system": "http://gematik.de/fhir/sid/KIM-Adresse",
                            "value": "practitioner@gluecklich.kim.telematik"
                        }
                    }
                ],
                "reasonCode": [
                    {
                        "coding": [
                            {
                                "code": "medication-stopped",
                                "system": "https://gematik.de/fhir/erp-servicerequest/CodeSystem/cancellation-reason-cs"
                            }
                        ]
                    }
                ],
                "reasonReference": [
                    {
                        "reference": "Medication-Runs-Out-Example-dateTime"
                    },
                    {
                        "reference": "Medication-Runs-Out-Example-Quantity"
                    }
                ],
                "requester": {
                    "reference": "3b579536-7d9c-497d-8fd2-0f4e555cde50"
                },
                "requisition": {
                    "system": "https://gematik.de/fhir/erp-servicerequest/sid/NamingSystemProcedureIdentifier",
                    "value": "29825e88-d8e7-4be8-bdc4-2001a1bccf83"
                },
                "status": "revoked",
                "subject": {
                    "reference": "4f2a7336-fc47-4472-b0b5-22ea57782a87"
                },
                "resourceType": "ServiceRequest"
            }
        },
        {
            "fullUrl": "urn:uuid:Example-Initial-Medication",
            "resource": {
                "id": "Example-Initial-Medication",
                "meta": {
                    "profile": [
                        "https://fhir.kbv.de/StructureDefinition/KBV_PR_ERP_Medication_PZN|1.1.0"
                    ]
                },
                "extension": [
                    {
                        "url": "https://fhir.kbv.de/StructureDefinition/KBV_EX_Base_Medication_Type",
                        "valueCodeableConcept": {
                            "coding": [
                                {
                                    "code": "763158003",
                                    "display": "Medicinal product (product)",
                                    "system": "http://snomed.info/sct",
                                    "version": "http://snomed.info/sct/900000000000207008/version/20220331"
                                }
                            ]
                        }
                    },
                    {
                        "url": "https://fhir.kbv.de/StructureDefinition/KBV_EX_ERP_Medication_Category",
                        "valueCoding": {
                            "code": "00",
                            "system": "https://fhir.kbv.de/CodeSystem/KBV_CS_ERP_Medication_Category"
                        }
                    },
                    {
                        "url": "https://fhir.kbv.de/StructureDefinition/KBV_EX_ERP_Medication_Vaccine",
                        "valueBoolean": false
                    },
                    {
                        "url": "http://fhir.de/StructureDefinition/normgroesse",
                        "valueCode": "N1"
                    }
                ],
                "code": {
                    "coding": [
                        {
                            "code": "08585997",
                            "system": "http://fhir.de/CodeSystem/ifa/pzn"
                        }
                    ],
                    "text": "Prospan® Hustensaft 100ml"
                },
                "form": {
                    "coding": [
                        {
                            "code": "FLE",
                            "system": "https://fhir.kbv.de/CodeSystem/KBV_CS_SFHIR_KBV_DARREICHUNGSFORM"
                        }
                    ]
                },
                "resourceType": "Medication"
            }
        },
        {
            "fullUrl": "urn:uuid:7f5834aa-3ad4-4af0-ad80-2a4bac31ce00",
            "resource": {
                "id": "7f5834aa-3ad4-4af0-ad80-2a4bac31ce00",
                "meta": {
                    "profile": [
                        "https://fhir.kbv.de/StructureDefinition/KBV_PR_FOR_Patient|1.1.0"
                    ]
                },
                "address": [
                    {
                        "city": "Berlin",
                        "line": [
                            "Musterstr. 1"
                        ],
                        "_line": [
                            {
                                "extension": [
                                    {
                                        "url": "http://hl7.org/fhir/StructureDefinition/iso21090-ADXP-houseNumber",
                                        "valueString": "1"
                                    },
                                    {
                                        "url": "http://hl7.org/fhir/StructureDefinition/iso21090-ADXP-streetName",
                                        "valueString": "Musterstr."
                                    }
                                ]
                            }
                        ],
                        "postalCode": "10623",
                        "type": "both"
                    }
                ],
                "birthDate": "1935-06-22",
                "identifier": [
                    {
                        "system": "http://fhir.de/sid/gkv/kvid-10",
                        "type": {
                            "coding": [
                                {
                                    "code": "GKV",
                                    "system": "http://fhir.de/CodeSystem/identifier-type-de-basis"
                                }
                            ]
                        },
                        "value": "X234567890"
                    }
                ],
                "name": [
                    {
                        "family": "Königsstein",
                        "given": [
                            "Ludger"
                        ],
                        "use": "official"
                    }
                ],
                "resourceType": "Patient"
            }
        },
        {
            "fullUrl": "urn:uuid:b6fe413842de4b3084a2b9231874fc08",
            "resource": {
                "id": "b6fe413842de4b3084a2b9231874fc08",
                "meta": {
                    "profile": [
                        "https://gematik.de/fhir/erp-servicerequest/StructureDefinition/erp-service-request-medication-request"
                    ]
                },
                "extension": [
                    {
                        "url": "https://gematik.de/fhir/erp-servicerequest/StructureDefinition/prescription-id-ex",
                        "valueIdentifier": {
                            "system": "https://gematik.de/fhir/erp/NamingSystem/GEM_ERP_NS_PrescriptionId",
                            "value": "160.100.000.000.001.36"
                        }
                    }
                ],
                "authoredOn": "2023-06-30T00:16:00.703194",
                "dispenseRequest": {
                    "quantity": {
                        "code": "{Package}",
                        "system": "http://unitsofmeasure.org",
                        "value": 1
                    }
                },
                "dosageInstruction": [
                    {
                        "text": "2mal tägl. 5ml"
                    }
                ],
                "intent": "order",
                "medicationReference": {
                    "reference": "Example-Initial-Medication"
                },
                "status": "active",
                "subject": {
                    "reference": "7f5834aa-3ad4-4af0-ad80-2a4bac31ce00"
                },
                "substitution": {
                    "allowedBoolean": true
                },
                "resourceType": "MedicationRequest"
            }
        },
        {
            "fullUrl": "urn:uuid:49c121eff8144b0d967a52c1eda6fdc0",
            "resource": {
                "id": "49c121eff8144b0d967a52c1eda6fdc0",
                "meta": {
                    "profile": [
                        "https://gematik.de/fhir/erp-servicerequest/StructureDefinition/erp-service-request-organization"
                    ]
                },
                "address": [
                    {
                        "city": "Berlin",
                        "line": [
                            "Musterstr. 2"
                        ],
                        "_line": [
                            {
                                "extension": [
                                    {
                                        "url": "http://hl7.org/fhir/StructureDefinition/iso21090-ADXP-houseNumber",
                                        "valueString": "2"
                                    },
                                    {
                                        "url": "http://hl7.org/fhir/StructureDefinition/iso21090-ADXP-streetName",
                                        "valueString": "Musterstr."
                                    }
                                ]
                            }
                        ],
                        "postalCode": "10623",
                        "type": "both"
                    }
                ],
                "identifier": [
                    {
                        "system": "http://gematik.de/fhir/sid/KIM-Adresse",
                        "type": {
                            "coding": [
                                {
                                    "code": "kim-2.0",
                                    "system": "https://gematik.de/fhir/directory/CodeSystem/EndpointDirectoryConnectionType"
                                }
                            ]
                        },
                        "value": "pflegeheim.immergrün.arzt@sana-pflegeheime.kim.telematik"
                    },
                    {
                        "system": "https://gematik.de/fhir/sid/telematik-id",
                        "type": {
                            "coding": [
                                {
                                    "code": "PRN",
                                    "system": "http://terminology.hl7.org/CodeSystem/v2-0203"
                                }
                            ]
                        },
                        "value": "1-031234567"
                    },
                    {
                        "system": "https://fhir.kbv.de/NamingSystem/KBV_NS_Base_BSNR",
                        "type": {
                            "coding": [
                                {
                                    "code": "BSNR",
                                    "system": "http://terminology.hl7.org/CodeSystem/v2-0203"
                                }
                            ]
                        },
                        "value": "031234567"
                    }
                ],
                "name": "Pflegeheim Immergrün",
                "telecom": [
                    {
                        "system": "phone",
                        "value": "0301234567"
                    }
                ],
                "resourceType": "Organization"
            }
        },
        {
            "fullUrl": "urn:uuid:Medication-Runs-Out-Example-dateTime",
            "resource": {
                "id": "Medication-Runs-Out-Example-dateTime",
                "meta": {
                    "profile": [
                        "https://gematik.de/fhir/erp-servicerequest/StructureDefinition/erp-service-request-remaining-medication"
                    ]
                },
                "code": {
                    "coding": [
                        {
                            "code": "range-of-medication",
                            "system": "https://gematik.de/fhir/erp-servicerequest/CodeSystem/medication-observation-cs"
                        }
                    ]
                },
                "status": "final",
                "subject": {
                    "reference": "Patient/Example-Patient"
                },
                "valueDateTime": "2023-01-31",
                "resourceType": "Observation"
            }
        },
        {
            "fullUrl": "urn:uuid:Medication-Runs-Out-Example-Quantity",
            "resource": {
                "id": "Medication-Runs-Out-Example-Quantity",
                "meta": {
                    "profile": [
                        "https://gematik.de/fhir/erp-servicerequest/StructureDefinition/erp-service-request-remaining-medication"
                    ]
                },
                "code": {
                    "coding": [
                        {
                            "code": "range-of-medication",
                            "system": "https://gematik.de/fhir/erp-servicerequest/CodeSystem/medication-observation-cs"
                        }
                    ]
                },
                "status": "final",
                "subject": {
                    "reference": "Patient/Example-Patient"
                },
                "valueQuantity": {
                    "unit": "stk",
                    "value": 7
                },
                "resourceType": "Observation"
            }
        }
    ],
    "identifier": {
        "system": "urn:ietf:rfc:3986",
        "value": "urn:uuid:b61797a0-636b-4264-a79a-3eeeff3db9a7"
    },
    "timestamp": "2023-06-29T22:16:00.704057+00:00",
    "type": "message",
    "resourceType": "Bundle"
}