{
    "id": "f6415f09-ddaa-4181-8b7d-e5b5127a21e1",
    "meta": {
        "profile": [
            "https://gematik.de/fhir/atf/StructureDefinition/bundle-app-transport-framework"
        ]
    },
    "entry": [
        {
            "fullUrl": "urn:uuid:8e88e5c7-5bf4-410a-a8ff-5b90f606ccd0",
            "resource": {
                "id": "8e88e5c7-5bf4-410a-a8ff-5b90f606ccd0",
                "meta": {
                    "profile": [
                        "https://gematik.de/fhir/atf/StructureDefinition/message-header-app-transport"
                    ]
                },
                "destination": [
                    {
                        "endpoint": "http://www.praxis.hasenbein@test.de",
                        "receiver": {
                            "display": "Praxis Dr. Hasenbein",
                            "identifier": {
                                "system": "http://gematik.de/fhir/sid/KIM-Adresse",
                                "value": "praxis.hasenbein@gluecklich.kim.telematik"
                            }
                        }
                    }
                ],
                "eventCoding": {
                    "code": "eRezept_Rezeptanforderung;Rezeptanfrage",
                    "display": "Anfrage an einen Arzt ein Rezept auszustellen",
                    "system": "https://gematik.de/fhir/atf/CodeSystem/service-identifier-cs"
                },
                "focus": [
                    {
                        "reference": "urn:uuid:bced0e61-bc46-4de8-890a-5b8f395bf237"
                    }
                ],
                "sender": {
                    "display": "Pflegeheim Immergrün",
                    "identifier": {
                        "system": "http://gematik.de/fhir/sid/KIM-Adresse",
                        "value": "pflegeheim.immergrün.arzt@sana-pflegeheime.kim.telematik"
                    }
                },
                "source": {
                    "contact": {
                        "system": "email",
                        "value": "dev@ps_solutions.de"
                    },
                    "endpoint": "https://ps_solutions.com/jira_helpdesk",
                    "name": "PSSolutions",
                    "software": "Globotron 500",
                    "version": "2.1.3"
                },
                "resourceType": "MessageHeader"
            }
        },
        {
            "fullUrl": "urn:uuid:bced0e61-bc46-4de8-890a-5b8f395bf237",
            "resource": {
                "id": "bced0e61-bc46-4de8-890a-5b8f395bf237",
                "meta": {
                    "profile": [
                        "https://gematik.de/fhir/erp-servicerequest/StructureDefinition/service-request-prescription-request"
                    ]
                },
                "authoredOn": "2023-06-28T12:33:31.028749",
                "basedOn": [
                    {
                        "reference": "96665469-dd1d-4be6-abaa-dd5230ee19c9"
                    }
                ],
                "code": {
                    "coding": [
                        {
                            "code": "prescription-request",
                            "system": "https://gematik.de/fhir/erp-servicerequest/CodeSystem/service-request-type-cs"
                        }
                    ]
                },
                "identifier": [
                    {
                        "system": "request",
                        "value": "bced0e61-bc46-4de8-890a-5b8f395bf237"
                    },
                    {
                        "system": "predis",
                        "value": "6035da62-33ca-4eab-84e9-89515a24cd35"
                    },
                    {
                        "system": "vorgangs",
                        "value": "72fa90d9-cd0f-4a99-ac87-5f8529bad3ff"
                    }
                ],
                "intent": "order",
                "note": [
                    {
                        "text": "Medikament läuft am 31.01.2023 aus. Es sind noch 7 stk übrig."
                    }
                ],
                "occurrenceDateTime": "2023-06-28T12:33:31.028745",
                "orderDetail": [
                    {
                        "coding": [
                            {
                                "code": "return-to-requester",
                                "system": "https://gematik.de/fhir/erp-servicerequest/CodeSystem/prescription-fullfillment-type-cs"
                            }
                        ]
                    }
                ],
                "performer": [
                    {
                        "identifier": {
                            "system": "http://gematik.de/fhir/sid/KIM-Adresse",
                            "value": "practitioner@gluecklich.kim.telematik"
                        }
                    }
                ],
                "reasonCode": [
                    {
                        "coding": [
                            {
                                "code": "medication-runs-out",
                                "system": "https://gematik.de/fhir/erp-servicerequest/CodeSystem/medication-request-reason-cs"
                            }
                        ]
                    }
                ],
                "reasonReference": [
                    {
                        "reference": "Medication-Runs-Out-Example-dateTime"
                    },
                    {
                        "reference": "Medication-Runs-Out-Example-Quantity"
                    }
                ],
                "requester": {
                    "reference": "cfe76caf-82d4-4b04-9da3-6b67e409ffe5"
                },
                "requisition": {
                    "system": "https://gematik.de/fhir/erp-servicerequest/sid/NamingSystemProcedureIdentifier",
                    "value": "72fa90d9-cd0f-4a99-ac87-5f8529bad3ff"
                },
                "status": "active",
                "subject": {
                    "reference": "e7c77ddd-206e-4a40-81e1-3313ef8c503d"
                },
                "resourceType": "ServiceRequest"
            }
        },
        {
            "fullUrl": "urn:uuid:Example-Initial-Medication",
            "resource": {
                "id": "Example-Initial-Medication",
                "meta": {
                    "profile": [
                        "https://fhir.kbv.de/StructureDefinition/KBV_PR_ERP_Medication_PZN|1.1.0"
                    ]
                },
                "extension": [
                    {
                        "url": "https://fhir.kbv.de/StructureDefinition/KBV_EX_Base_Medication_Type",
                        "valueCodeableConcept": {
                            "coding": [
                                {
                                    "code": "763158003",
                                    "display": "Medicinal product (product)",
                                    "system": "http://snomed.info/sct",
                                    "version": "http://snomed.info/sct/900000000000207008/version/20220331"
                                }
                            ]
                        }
                    },
                    {
                        "url": "https://fhir.kbv.de/StructureDefinition/KBV_EX_ERP_Medication_Category",
                        "valueCoding": {
                            "code": "00",
                            "system": "https://fhir.kbv.de/CodeSystem/KBV_CS_ERP_Medication_Category"
                        }
                    },
                    {
                        "url": "https://fhir.kbv.de/StructureDefinition/KBV_EX_ERP_Medication_Vaccine",
                        "valueBoolean": false
                    },
                    {
                        "url": "http://fhir.de/StructureDefinition/normgroesse",
                        "valueCode": "N1"
                    }
                ],
                "code": {
                    "coding": [
                        {
                            "code": "08585997",
                            "system": "http://fhir.de/CodeSystem/ifa/pzn"
                        }
                    ],
                    "text": "Prospan® Hustensaft 100ml"
                },
                "form": {
                    "coding": [
                        {
                            "code": "FLE",
                            "system": "https://fhir.kbv.de/CodeSystem/KBV_CS_SFHIR_KBV_DARREICHUNGSFORM"
                        }
                    ]
                },
                "resourceType": "Medication"
            }
        },
        {
            "fullUrl": "urn:uuid:bf1d1944-8a44-42d9-adac-5dc05b03af7c",
            "resource": {
                "id": "bf1d1944-8a44-42d9-adac-5dc05b03af7c",
                "meta": {
                    "profile": [
                        "https://fhir.kbv.de/StructureDefinition/KBV_PR_FOR_Patient|1.1.0"
                    ]
                },
                "address": [
                    {
                        "city": "Berlin",
                        "line": [
                            "Musterstr. 1"
                        ],
                        "_line": [
                            {
                                "extension": [
                                    {
                                        "url": "http://hl7.org/fhir/StructureDefinition/iso21090-ADXP-houseNumber",
                                        "valueString": "1"
                                    },
                                    {
                                        "url": "http://hl7.org/fhir/StructureDefinition/iso21090-ADXP-streetName",
                                        "valueString": "Musterstr."
                                    }
                                ]
                            }
                        ],
                        "postalCode": "10623",
                        "type": "both"
                    }
                ],
                "birthDate": "1935-06-22",
                "identifier": [
                    {
                        "system": "http://fhir.de/sid/gkv/kvid-10",
                        "type": {
                            "coding": [
                                {
                                    "code": "GKV",
                                    "system": "http://fhir.de/CodeSystem/identifier-type-de-basis"
                                }
                            ]
                        },
                        "value": "X234567890"
                    }
                ],
                "name": [
                    {
                        "family": "Königsstein",
                        "given": [
                            "Ludger"
                        ],
                        "use": "official"
                    }
                ],
                "resourceType": "Patient"
            }
        },
        {
            "fullUrl": "urn:uuid:ab655dafc49549bda72185950e8180f9",
            "resource": {
                "id": "ab655dafc49549bda72185950e8180f9",
                "meta": {
                    "profile": [
                        "https://gematik.de/fhir/erp-servicerequest/StructureDefinition/erp-service-request-medication-request"
                    ]
                },
                "extension": [
                    {
                        "url": "https://gematik.de/fhir/erp-servicerequest/StructureDefinition/prescription-id-ex",
                        "valueIdentifier": {
                            "system": "https://gematik.de/fhir/erp/NamingSystem/GEM_ERP_NS_PrescriptionId",
                            "value": "160.100.000.000.001.36"
                        }
                    }
                ],
                "authoredOn": "2023-06-28T12:33:31.028051",
                "dispenseRequest": {
                    "quantity": {
                        "code": "{Package}",
                        "system": "http://unitsofmeasure.org",
                        "value": 1
                    }
                },
                "dosageInstruction": [
                    {
                        "text": "2mal tägl. 5ml"
                    }
                ],
                "intent": "order",
                "medicationReference": {
                    "reference": "Example-Initial-Medication"
                },
                "status": "active",
                "subject": {
                    "reference": "bf1d1944-8a44-42d9-adac-5dc05b03af7c"
                },
                "substitution": {
                    "allowedBoolean": true
                },
                "resourceType": "MedicationRequest"
            }
        },
        {
            "fullUrl": "urn:uuid:8c43230b937a46f6878d4e81046e0ec7",
            "resource": {
                "id": "8c43230b937a46f6878d4e81046e0ec7",
                "meta": {
                    "profile": [
                        "https://gematik.de/fhir/erp-servicerequest/StructureDefinition/erp-service-request-organization"
                    ]
                },
                "address": [
                    {
                        "city": "Berlin",
                        "line": [
                            "Musterstr. 2"
                        ],
                        "_line": [
                            {
                                "extension": [
                                    {
                                        "url": "http://hl7.org/fhir/StructureDefinition/iso21090-ADXP-houseNumber",
                                        "valueString": "2"
                                    },
                                    {
                                        "url": "http://hl7.org/fhir/StructureDefinition/iso21090-ADXP-streetName",
                                        "valueString": "Musterstr."
                                    }
                                ]
                            }
                        ],
                        "postalCode": "10623",
                        "type": "both"
                    }
                ],
                "identifier": [
                    {
                        "system": "http://gematik.de/fhir/sid/KIM-Adresse",
                        "type": {
                            "coding": [
                                {
                                    "code": "kim-2.0",
                                    "system": "https://gematik.de/fhir/directory/CodeSystem/EndpointDirectoryConnectionType"
                                }
                            ]
                        },
                        "value": "pflegeheim.immergrün.arzt@sana-pflegeheime.kim.telematik"
                    },
                    {
                        "system": "https://gematik.de/fhir/sid/telematik-id",
                        "type": {
                            "coding": [
                                {
                                    "code": "PRN",
                                    "system": "http://terminology.hl7.org/CodeSystem/v2-0203"
                                }
                            ]
                        },
                        "value": "1-031234567"
                    },
                    {
                        "system": "https://fhir.kbv.de/NamingSystem/KBV_NS_Base_BSNR",
                        "type": {
                            "coding": [
                                {
                                    "code": "BSNR",
                                    "system": "http://terminology.hl7.org/CodeSystem/v2-0203"
                                }
                            ]
                        },
                        "value": "031234567"
                    }
                ],
                "name": "Pflegeheim Immergrün",
                "telecom": [
                    {
                        "system": "phone",
                        "value": "0301234567"
                    }
                ],
                "resourceType": "Organization"
            }
        },
        {
            "fullUrl": "urn:uuid:Medication-Runs-Out-Example-dateTime",
            "resource": {
                "id": "Medication-Runs-Out-Example-dateTime",
                "meta": {
                    "profile": [
                        "https://gematik.de/fhir/erp-servicerequest/StructureDefinition/erp-service-request-remaining-medication"
                    ]
                },
                "code": {
                    "coding": [
                        {
                            "code": "range-of-medication",
                            "system": "https://gematik.de/fhir/erp-servicerequest/CodeSystem/medication-observation-cs"
                        }
                    ]
                },
                "status": "final",
                "subject": {
                    "reference": "Patient/Example-Patient"
                },
                "valueDateTime": "2023-01-31",
                "resourceType": "Observation"
            }
        },
        {
            "fullUrl": "urn:uuid:Medication-Runs-Out-Example-Quantity",
            "resource": {
                "id": "Medication-Runs-Out-Example-Quantity",
                "meta": {
                    "profile": [
                        "https://gematik.de/fhir/erp-servicerequest/StructureDefinition/erp-service-request-remaining-medication"
                    ]
                },
                "code": {
                    "coding": [
                        {
                            "code": "range-of-medication",
                            "system": "https://gematik.de/fhir/erp-servicerequest/CodeSystem/medication-observation-cs"
                        }
                    ]
                },
                "status": "final",
                "subject": {
                    "reference": "Patient/Example-Patient"
                },
                "valueQuantity": {
                    "unit": "stk",
                    "value": 7
                },
                "resourceType": "Observation"
            }
        }
    ],
    "identifier": {
        "system": "urn:ietf:rfc:3986",
        "value": "urn:uuid:f6415f09-ddaa-4181-8b7d-e5b5127a21e1"
    },
    "timestamp": "2023-06-28T10:33:31.030438+00:00",
    "type": "message",
    "resourceType": "Bundle"
}