{
  "resourceType": "Bundle",
  "id": "UC1-MULTI-2-Response-Prescription-Request-2",
  "meta": {
    "profile": [
      "https://gematik.de/fhir/erp-servicerequest/StructureDefinition/erp-service-request-message-container"
    ]
  },
  "type": "message",
  "identifier": {
    "system": "urn:ietf:rfc:3986",
    "value": "urn:uuid:29888885-6639-481c-934e-4b7b51745084"
  },
  "timestamp": "2025-05-14T08:15:12+02:00",
  "entry": [
    {
      "fullUrl": "http://erp-servicerequest-test.de/MessageHeader/UC1-MULTI-Practitioner-to-HealthCareService-MessageHeader-2",
      "resource": {
        "resourceType": "MessageHeader",
        "id": "UC1-MULTI-Practitioner-to-HealthCareService-MessageHeader-2",
        "meta": {
          "profile": [
            "https://gematik.de/fhir/erp-servicerequest/StructureDefinition/erp-service-request-request-header"
          ]
        },
        "source": {
          "contact": {
            "system": "email",
            "value": "info@pvs.email"
          },
          "name": "Practitioner-Source",
          "software": "Practitioner-Software",
          "version": "1.0.0",
          "endpoint": "practitioner@test.kim.de"
        },
        "focus": [
          {
            "reference": "ServiceRequest/UC1-MULTI-Response-Prescription-Request-2"
          }
        ],
        "sender": {
          "identifier": {
            "system": "https://gematik.de/fhir/sid/telematik-id",
            "value": "1-test-telematik-id"
          },
          "display": "Praxis Hans Topp-Glücklich"
        },
        "destination": [
          {
            "name": "Pflegeheim Immergrün",
            "endpoint": "healthcare-service@test.kim.de"
          }
        ],
        "eventCoding": {
          "code": "eRezept_Rezeptanforderung;Rezeptanfrage_Storno",
          "system": "https://gematik.de/fhir/atf/CodeSystem/service-identifier-cs",
          "display": "Abbruch der Rezeptanfrage"
        },
        "responsible": {
          "reference": "Organization/Example-Practitioner-Organization"
        }
      }
    },
    {
      "fullUrl": "http://erp-servicerequest-test.de/Organization/Example-Practitioner-Organization",
      "resource": {
        "resourceType": "Organization",
        "id": "Example-Practitioner-Organization",
        "meta": {
          "profile": [
            "https://gematik.de/fhir/erp-servicerequest/StructureDefinition/erp-service-request-organization"
          ]
        },
        "type": [
          {
            "coding": [
              {
                "system": "http://ihe-d.de/CodeSystems/PatientBezogenenGesundheitsversorgung",
                "code": "PRA",
                "display": "Arztpraxis"
              }
            ]
          }
        ],
        "contact": [
          {
            "telecom": [
              {
                "system": "phone",
                "value": "0307654321"
              }
            ]
          }
        ],
        "address": [
          {
            "type": "both",
            "line": [
              "Musterarztstr. 3"
            ],
            "_line": [
              {
                "extension": [
                  {
                    "url": "http://hl7.org/fhir/StructureDefinition/iso21090-ADXP-houseNumber",
                    "valueString": "3"
                  },
                  {
                    "url": "http://hl7.org/fhir/StructureDefinition/iso21090-ADXP-streetName",
                    "valueString": "Musterarztstr."
                  }
                ]
              }
            ],
            "city": "Berlin",
            "postalCode": "10623"
          }
        ],
        "name": "Test Arztpraxis"
      }
    },
    {
      "fullUrl": "http://erp-servicerequest-test.de/ServiceRequest/UC1-MULTI-Response-Prescription-Request-2",
      "resource": {
        "resourceType": "ServiceRequest",
        "id": "UC1-MULTI-Response-Prescription-Request-2",
        "meta": {
          "profile": [
            "https://gematik.de/fhir/erp-servicerequest/StructureDefinition/erp-service-request-prescription-request"
          ]
        },
        "intent": "order",
        "identifier": [
          {
            "system": "https://gematik.de/fhir/erp-servicerequest/sid/RequestIdentifier",
            "value": "multi-2"
          }
        ],
        "requisition": {
          "system": "https://gematik.de/fhir/erp-servicerequest/sid/ProcedureIdentifier",
          "value": "GroupID-UC1-MULTI"
        },
        "code": {
          "coding": [
            {
              "code": "prescription-request",
              "system": "https://gematik.de/fhir/erp-servicerequest/CodeSystem/service-request-type-cs"
            }
          ]
        },
        "status": "revoked",
        "subject": {
          "reference": "Patient/Example-Patient-2"
        },
        "authoredOn": "2025-05-13",
        "performer": [
          {
            "identifier": {
              "system": "https://gematik.de/fhir/sid/telematik-id",
              "value": "1-test-telematik-id"
            }
          }
        ],
        "reasonCode": [
          {
            "text": "Hr. Edgarson braucht das Buscopan nicht mehr, wird abgesetzt und aus dem Medkationsplan entfernt."
          }
        ],
        "note": [
          {
            "text": "Sehr geehrter Herr Topp Glücklich,\n Wir möchten gerne die angehangene Medikation bei ihnen anfragen.",
            "time": "2025-05-13T12:23:12+02:00"
          },
          {
            "text": "Sehr geehrte Damen und Herren,\n Die Rezeptanfrage wurde abgelehnt, s. Grund.",
            "time": "2025-05-14T08:12:23+02:00"
          }
        ]
      }
    },
    {
      "fullUrl": "http://erp-servicerequest-test.de/Patient/Example-Patient-2",
      "resource": {
        "resourceType": "Patient",
        "id": "Example-Patient-2",
        "meta": {
          "profile": [
            "https://gematik.de/fhir/erp-servicerequest/StructureDefinition/erp-service-request-patient"
          ]
        },
        "name": [
          {
            "use": "official",
            "family": "Edgarson",
            "_family": {
              "extension": [
                {
                  "url": "http://hl7.org/fhir/StructureDefinition/humanname-own-name",
                  "valueString": "Edgarson"
                }
              ]
            },
            "given": [
              "Peter"
            ]
          }
        ],
        "identifier": [
          {
            "type": {
              "coding": [
                {
                  "system": "http://fhir.de/CodeSystem/identifier-type-de-basis",
                  "code": "GKV"
                }
              ]
            },
            "system": "http://fhir.de/sid/gkv/kvid-10",
            "value": "X098765432"
          }
        ],
        "address": [
          {
            "type": "both",
            "line": [
              "Erikastraße 43"
            ],
            "_line": [
              {
                "extension": [
                  {
                    "url": "http://hl7.org/fhir/StructureDefinition/iso21090-ADXP-houseNumber",
                    "valueString": "43"
                  },
                  {
                    "url": "http://hl7.org/fhir/StructureDefinition/iso21090-ADXP-streetName",
                    "valueString": "Erikastraße"
                  }
                ]
              }
            ],
            "city": "Berlin",
            "postalCode": "10742"
          }
        ],
        "birthDate": "1974-01-31"
      }
    }
  ]
}
