<?xml version="1.0" encoding="UTF-8"?>
<Bundle xmlns="http://hl7.org/fhir">
    <id value="UC1-2-Fullfilled-Prescription-Request"/>
    <meta>
        <profile value="https://gematik.de/fhir/erp-servicerequest/StructureDefinition/erp-service-request-message-container"/>
    </meta>
    <identifier>
        <system value="urn:ietf:rfc:3986"/>
        <value value="urn:uuid:29888885-6639-481c-934e-4b7b51745084"/>
    </identifier>
    <type value="message"/>
    <timestamp value="2025-05-14T08:15:12+02:00"/>
    <entry>
        <fullUrl value="http://erp-servicerequest-test.de/MessageHeader/UC1-Practitioner-to-HealthCareService-MessageHeader"/>
        <resource>
            <MessageHeader>
                <id value="UC1-Practitioner-to-HealthCareService-MessageHeader"/>
                <meta>
                    <profile value="https://gematik.de/fhir/erp-servicerequest/StructureDefinition/erp-service-request-request-header"/>
                </meta>
                <eventCoding>
                    <system value="https://gematik.de/fhir/atf/CodeSystem/service-identifier-cs"/>
                    <code value="eRezept_Rezeptanforderung;Rezeptbestaetigung"/>
                </eventCoding>
                <destination>
                    <name value="Pflegeheim Immergrün"/>
                    <endpoint value="healthcare-service@test.kim.de"/>
                </destination>
                <sender>
                    <identifier>
                        <system value="https://gematik.de/fhir/sid/telematik-id"/>
                        <value value="1-test-telematik-id"/>
                    </identifier>
                    <display value="Praxis Hans Topp-Glücklich"/>
                </sender>
                <source>
                    <name value="Practitioner-Source"/>
                    <software value="Practitioner-Software"/>
                    <version value="1.0.0"/>
                    <contact>
                        <system value="email"/>
                        <value value="info@pvs.email"/>
                    </contact>
                    <endpoint value="practitioner@test.kim.de"/>
                </source>
                <responsible>
                    <reference value="Organization/Example-Practitioner-Organization"/>
                </responsible>
                <focus>
                    <reference value="ServiceRequest/UC1-Response-Prescription-Request"/>
                </focus>
            </MessageHeader>
        </resource>
    </entry>
    <entry>
        <fullUrl value="http://erp-servicerequest-test.de/Organization/Example-Practitioner-Organization"/>
        <resource>
            <Organization>
                <id value="Example-Practitioner-Organization"/>
                <meta>
                    <profile value="https://gematik.de/fhir/erp-servicerequest/StructureDefinition/erp-service-request-organization"/>
                </meta>
                <type>
                    <coding>
                        <system value="http://ihe-d.de/CodeSystems/PatientBezogenenGesundheitsversorgung"/>
                        <code value="PRA"/>
                        <display value="Arztpraxis"/>
                    </coding>
                </type>
                <name value="Test Arztpraxis"/>
                <address>
                    <type value="both"/>
                    <line value="Musterarztstr. 3">
                        <extension url="http://hl7.org/fhir/StructureDefinition/iso21090-ADXP-houseNumber">
                            <valueString value="3"/>
                        </extension>
                        <extension url="http://hl7.org/fhir/StructureDefinition/iso21090-ADXP-streetName">
                            <valueString value="Musterarztstr."/>
                        </extension>
                    </line>
                    <city value="Berlin"/>
                    <postalCode value="10623"/>
                </address>
                <contact>
                    <telecom>
                        <system value="phone"/>
                        <value value="0307654321"/>
                    </telecom>
                </contact>
            </Organization>
        </resource>
    </entry>
    <entry>
        <fullUrl value="http://erp-servicerequest-test.de/ServiceRequest/UC1-Response-Prescription-Request"/>
        <resource>
            <ServiceRequest>
                <id value="UC1-Response-Prescription-Request"/>
                <meta>
                    <profile value="https://gematik.de/fhir/erp-servicerequest/StructureDefinition/erp-service-request-prescription-request"/>
                </meta>
                <extension url="https://gematik.de/fhir/erp-servicerequest/StructureDefinition/eprescription-token-ex">
                    <valueIdentifier>
                        <system value="https://gematik.de/fhir/erp/sid/NamingSystemEPrescriptionToken"/>
                        <value value="Task/169.100.000.000.002.36/$accept?ac=777bea0e13cc9c42ceec14aec3ddee2263325dc2c6c699db115f58fe423607ea"/>
                    </valueIdentifier>
                </extension>
                <identifier>
                    <system value="https://gematik.de/fhir/erp-servicerequest/sid/RequestIdentifier"/>
                    <value value="1"/>
                </identifier>
                <basedOn>
                    <reference value="MedicationRequest/Example-Response-Medication-Request"/>
                </basedOn>
                <requisition>
                    <system value="https://gematik.de/fhir/erp-servicerequest/sid/ProcedureIdentifier"/>
                    <value value="GroupID-UC1"/>
                </requisition>
                <status value="completed"/>
                <intent value="order"/>
                <code>
                    <coding>
                        <system value="https://gematik.de/fhir/erp-servicerequest/CodeSystem/service-request-type-cs"/>
                        <code value="prescription-request"/>
                    </coding>
                </code>
                <subject>
                    <reference value="Patient/Example-Patient"/>
                </subject>
                <authoredOn value="2025-05-13"/>
                <performer>
                    <identifier>
                        <system value="https://gematik.de/fhir/sid/telematik-id"/>
                        <value value="1-test-telematik-id"/>
                    </identifier>
                </performer>
                <note>
                    <time value="2025-05-14T08:12:23+02:00"/>
                    <text value="Wird weiterhin benötigt, bitte um Verlängerung."/>
                </note>
            </ServiceRequest>
        </resource>
    </entry>
    <entry>
        <fullUrl value="http://erp-servicerequest-test.de/Patient/Example-Patient"/>
        <resource>
            <Patient>
                <id value="Example-Patient"/>
                <meta>
                    <profile value="https://gematik.de/fhir/erp-servicerequest/StructureDefinition/erp-service-request-patient"/>
                </meta>
                <identifier>
                    <type>
                        <coding>
                            <system value="http://fhir.de/CodeSystem/identifier-type-de-basis"/>
                            <code value="GKV"/>
                        </coding>
                    </type>
                    <system value="http://fhir.de/sid/gkv/kvid-10"/>
                    <value value="X234567890"/>
                </identifier>
                <name>
                    <use value="official"/>
                    <family value="Königsstein">
                        <extension url="http://hl7.org/fhir/StructureDefinition/humanname-own-name">
                            <valueString value="Königsstein"/>
                        </extension>
                    </family>
                    <given value="Ludger"/>
                </name>
                <birthDate value="1935-06-22"/>
                <address>
                    <type value="both"/>
                    <line value="Musterstr. 1">
                        <extension url="http://hl7.org/fhir/StructureDefinition/iso21090-ADXP-houseNumber">
                            <valueString value="1"/>
                        </extension>
                        <extension url="http://hl7.org/fhir/StructureDefinition/iso21090-ADXP-streetName">
                            <valueString value="Musterstr."/>
                        </extension>
                    </line>
                    <city value="Berlin"/>
                    <postalCode value="10623"/>
                </address>
            </Patient>
        </resource>
    </entry>
    <entry>
        <fullUrl value="http://erp-servicerequest-test.de/MedicationRequest/Example-Response-Medication-Request"/>
        <resource>
            <MedicationRequest>
                <id value="Example-Response-Medication-Request"/>
                <meta>
                    <profile value="https://gematik.de/fhir/erp-servicerequest/StructureDefinition/erp-service-request-medication-request"/>
                </meta>
                <status value="active"/>
                <intent value="order"/>
                <medicationReference>
                    <reference value="Medication/Example-Response-Medication"/>
                </medicationReference>
                <subject>
                    <reference value="Patient/Example-Patient"/>
                </subject>
                <dosageInstruction>
                    <text value="1-1-1-0"/>
                </dosageInstruction>
                <dispenseRequest>
                    <quantity>
                        <value value="65"/>
                        <unit value="Milliliter"/>
                        <system value="http://unitsofmeasure.org"/>
                        <code value="mL"/>
                    </quantity>
                </dispenseRequest>
            </MedicationRequest>
        </resource>
    </entry>
    <entry>
        <fullUrl value="http://erp-servicerequest-test.de/Medication/Example-Response-Medication"/>
        <resource>
            <Medication>
                <id value="Example-Response-Medication"/>
                <meta>
                    <profile value="https://fhir.kbv.de/StructureDefinition/KBV_PR_ERP_Medication_PZN|1.1.0"/>
                </meta>
                <extension url="https://fhir.kbv.de/StructureDefinition/KBV_EX_Base_Medication_Type">
                    <valueCodeableConcept>
                        <coding>
                            <system value="http://snomed.info/sct"/>
                            <version value="http://snomed.info/sct/900000000000207008/version/20220331"/>
                            <code value="763158003"/>
                            <display value="Medicinal product (product)"/>
                        </coding>
                    </valueCodeableConcept>
                </extension>
                <extension url="https://fhir.kbv.de/StructureDefinition/KBV_EX_ERP_Medication_Category">
                    <valueCoding>
                        <system value="https://fhir.kbv.de/CodeSystem/KBV_CS_ERP_Medication_Category"/>
                        <code value="00"/>
                    </valueCoding>
                </extension>
                <extension url="https://fhir.kbv.de/StructureDefinition/KBV_EX_ERP_Medication_Vaccine">
                    <valueBoolean value="false"/>
                </extension>
                <extension url="http://fhir.de/StructureDefinition/normgroesse">
                    <valueCode value="N1"/>
                </extension>
                <code>
                    <coding>
                        <system value="http://fhir.de/CodeSystem/ifa/pzn"/>
                        <code value="08585997"/>
                    </coding>
                    <text value="Prospan® Hustensaft 100ml N1"/>
                </code>
                <form>
                    <coding>
                        <system value="https://fhir.kbv.de/CodeSystem/KBV_CS_SFHIR_KBV_DARREICHUNGSFORM"/>
                        <code value="FLE"/>
                    </coding>
                </form>
            </Medication>
        </resource>
    </entry>
</Bundle>