{
  "resourceType": "Bundle",
  "id": "UC2-1-Prescription-Request-To-HealthCareService",
  "meta": {
    "profile": [
      "https://gematik.de/fhir/erp-servicerequest/StructureDefinition/erp-service-request-message-container"
    ]
  },
  "type": "message",
  "identifier": {
    "system": "urn:ietf:rfc:3986",
    "value": "urn:uuid:29888885-6639-481c-934e-4b7b51745084"
  },
  "entry": [
    {
      "fullUrl": "http://erp-servicerequest-test.de/MessageHeader/UC2-1-Pharmacy-to-HealthCareService-MessageHeader",
      "resource": {
        "resourceType": "MessageHeader",
        "id": "UC2-1-Pharmacy-to-HealthCareService-MessageHeader",
        "meta": {
          "profile": [
            "https://gematik.de/fhir/erp-servicerequest/StructureDefinition/erp-service-request-request-header"
          ]
        },
        "focus": [
          {
            "reference": "ServiceRequest/UC2-Initial-Prescription-Request"
          }
        ],
        "sender": {
          "identifier": {
            "system": "http://gematik.de/fhir/sid/KIM-Adresse",
            "value": "arbeitsplatz-1@test-apotheke.kim.telematik"
          },
          "display": "Test Apotheke"
        },
        "source": {
          "name": "Pharmacy-Source",
          "software": "Pharmacy-Software",
          "version": "1.0.0",
          "contact": {
            "system": "email",
            "value": "info@pharmacy.email"
          },
          "endpoint": "http://pharmacy.endpoint"
        },
        "destination": [
          {
            "receiver": {
              "identifier": {
                "system": "http://gematik.de/fhir/sid/KIM-Adresse",
                "value": "hans@ytopp-gluecklich.kim.telematik"
              },
              "display": "Praxis Hans Topp-Glücklich"
            },
            "endpoint": "klaus@test.de"
          }
        ],
        "eventCoding": {
          "code": "eRezept_Rezeptanforderung;Rezeptanfrage",
          "system": "https://gematik.de/fhir/atf/CodeSystem/service-identifier-cs"
        }
      }
    },
    {
      "fullUrl": "http://erp-servicerequest-test.de/ServiceRequest/UC2-Initial-Prescription-Request",
      "resource": {
        "resourceType": "ServiceRequest",
        "id": "UC2-Initial-Prescription-Request",
        "meta": {
          "profile": [
            "https://gematik.de/fhir/erp-servicerequest/StructureDefinition/service-request-prescription-request"
          ]
        },
        "intent": "order",
        "requisition": {
          "system": "https://gematik.de/fhir/erp-servicerequest/sid/NamingSystemProcedureIdentifier",
          "value": "GroupID-2"
        },
        "code": {
          "coding": [
            {
              "code": "prescription-request",
              "system": "https://gematik.de/fhir/erp-servicerequest/CodeSystem/service-request-type-cs"
            }
          ]
        },
        "identifier": [
          {
            "system": "https://gematik.de/fhir/erp-servicerequest/sid/NamingSystemRequestIdentifier",
            "value": "req-1"
          }
        ],
        "basedOn": [
          {
            "reference": "MedicationRequest/Example-Initial-Medication-Request"
          }
        ],
        "status": "active",
        "subject": {
          "reference": "Patient/Example-Patient"
        },
        "orderDetail": [
          {
            "coding": [
              {
                "code": "return-to-requester",
                "system": "https://gematik.de/fhir/erp-servicerequest/CodeSystem/prescription-fullfillment-type-cs"
              }
            ]
          }
        ],
        "occurrenceDateTime": "2023-02-01",
        "authoredOn": "2023-01-27",
        "requester": {
          "reference": "Organization/Example-Pharmacy-Organization"
        },
        "performer": [
          {
            "identifier": {
              "system": "http://gematik.de/fhir/sid/KIM-Adresse",
              "value": "hans@ytopp-gluecklich.kim.telematik"
            }
          }
        ]
      }
    },
    {
      "fullUrl": "http://erp-servicerequest-test.de/MedicationRequest/Example-Initial-Medication-Request",
      "resource": {
        "resourceType": "MedicationRequest",
        "id": "Example-Initial-Medication-Request",
        "meta": {
          "profile": [
            "https://gematik.de/fhir/erp-servicerequest/StructureDefinition/erp-service-request-medication-request"
          ]
        },
        "extension": [
          {
            "valueIdentifier": {
              "system": "https://gematik.de/fhir/erp/NamingSystem/GEM_ERP_NS_PrescriptionId",
              "value": "160.100.000.000.001.36"
            },
            "url": "https://gematik.de/fhir/erp-servicerequest/StructureDefinition/prescription-id-ex"
          }
        ],
        "dispenseRequest": {
          "quantity": {
            "system": "http://unitsofmeasure.org",
            "code": "{Package}",
            "value": 1
          }
        },
        "status": "active",
        "intent": "order",
        "medicationReference": {
          "reference": "Medication/Example-Initial-Medication"
        },
        "subject": {
          "reference": "Patient/Example-Patient"
        },
        "authoredOn": "2022-05-20",
        "dosageInstruction": [
          {
            "text": "2mal tägl. 5ml"
          }
        ],
        "substitution": {
          "allowedBoolean": true
        }
      }
    },
    {
      "fullUrl": "http://erp-servicerequest-test.de/Medication/Example-Initial-Medication",
      "resource": {
        "resourceType": "Medication",
        "id": "Example-Initial-Medication",
        "meta": {
          "profile": [
            "https://fhir.kbv.de/StructureDefinition/KBV_PR_ERP_Medication_PZN|1.1.0"
          ]
        },
        "extension": [
          {
            "url": "https://fhir.kbv.de/StructureDefinition/KBV_EX_Base_Medication_Type",
            "valueCodeableConcept": {
              "coding": [
                {
                  "system": "http://snomed.info/sct",
                  "version": "http://snomed.info/sct/900000000000207008/version/20220331",
                  "code": "763158003",
                  "display": "Medicinal product (product)"
                }
              ]
            }
          },
          {
            "url": "https://fhir.kbv.de/StructureDefinition/KBV_EX_ERP_Medication_Category",
            "valueCoding": {
              "code": "00",
              "system": "https://fhir.kbv.de/CodeSystem/KBV_CS_ERP_Medication_Category"
            }
          },
          {
            "url": "https://fhir.kbv.de/StructureDefinition/KBV_EX_ERP_Medication_Vaccine",
            "valueBoolean": false
          },
          {
            "url": "http://fhir.de/StructureDefinition/normgroesse",
            "valueCode": "N1"
          }
        ],
        "code": {
          "coding": [
            {
              "system": "http://fhir.de/CodeSystem/ifa/pzn",
              "code": "08585997"
            }
          ],
          "text": "Prospan® Hustensaft 100ml"
        },
        "form": {
          "coding": [
            {
              "system": "https://fhir.kbv.de/CodeSystem/KBV_CS_SFHIR_KBV_DARREICHUNGSFORM",
              "code": "FLE"
            }
          ]
        }
      }
    },
    {
      "fullUrl": "http://erp-servicerequest-test.de/Patient/Example-Patient",
      "resource": {
        "resourceType": "Patient",
        "id": "Example-Patient",
        "meta": {
          "profile": [
            "https://fhir.kbv.de/StructureDefinition/KBV_PR_FOR_Patient|1.1.0"
          ]
        },
        "identifier": [
          {
            "type": {
              "coding": [
                {
                  "system": "http://fhir.de/CodeSystem/identifier-type-de-basis",
                  "code": "GKV"
                }
              ]
            },
            "system": "http://fhir.de/sid/gkv/kvid-10",
            "value": "X234567890"
          }
        ],
        "name": [
          {
            "use": "official",
            "family": "Königsstein",
            "_family": {
              "extension": [
                {
                  "url": "http://hl7.org/fhir/StructureDefinition/humanname-own-name",
                  "valueString": "Königsstein"
                }
              ]
            },
            "given": [
              "Ludger"
            ]
          }
        ],
        "address": [
          {
            "type": "both",
            "line": [
              "Musterstr. 1"
            ],
            "_line": [
              {
                "extension": [
                  {
                    "url": "http://hl7.org/fhir/StructureDefinition/iso21090-ADXP-houseNumber",
                    "valueString": "1"
                  },
                  {
                    "url": "http://hl7.org/fhir/StructureDefinition/iso21090-ADXP-streetName",
                    "valueString": "Musterstr."
                  }
                ]
              }
            ],
            "city": "Berlin",
            "postalCode": "10623"
          }
        ],
        "birthDate": "1935-06-22"
      }
    },
    {
      "fullUrl": "http://erp-servicerequest-test.de/Practitioner/Example-Practitioner",
      "resource": {
        "resourceType": "Practitioner",
        "id": "Example-Practitioner",
        "meta": {
          "profile": [
            "https://fhir.kbv.de/StructureDefinition/KBV_PR_FOR_Practitioner|1.1.0"
          ]
        },
        "name": [
          {
            "use": "official",
            "family": "Topp-Glücklich",
            "_family": {
              "extension": [
                {
                  "url": "http://hl7.org/fhir/StructureDefinition/humanname-own-name",
                  "valueString": "Topp-Glücklich"
                }
              ]
            },
            "given": [
              "Hans"
            ],
            "prefix": [
              "Dr. med."
            ],
            "_prefix": [
              {
                "extension": [
                  {
                    "url": "http://hl7.org/fhir/StructureDefinition/iso21090-EN-qualifier",
                    "valueCode": "AC"
                  }
                ]
              }
            ]
          }
        ],
        "qualification": [
          {
            "code": {
              "coding": [
                {
                  "system": "https://fhir.kbv.de/CodeSystem/KBV_CS_FOR_Qualification_Type",
                  "code": "00"
                }
              ]
            }
          },
          {
            "code": {
              "coding": [
                {
                  "system": "https://fhir.kbv.de/CodeSystem/KBV_CS_FOR_Berufsbezeichnung",
                  "code": "Berufsbezeichnung"
                }
              ],
              "text": "Hausarzt"
            }
          }
        ],
        "identifier": [
          {
            "type": {
              "coding": [
                {
                  "system": "http://terminology.hl7.org/CodeSystem/v2-0203",
                  "code": "LANR"
                }
              ]
            },
            "system": "https://fhir.kbv.de/NamingSystem/KBV_NS_Base_ANR",
            "value": "838382202"
          },
          {
            "type": {
              "coding": [
                {
                  "system": "http://terminology.hl7.org/CodeSystem/v2-0203",
                  "code": "PRN"
                }
              ]
            },
            "system": "https://gematik.de/fhir/sid/telematik-id",
            "value": "1-838382202"
          }
        ]
      }
    },
    {
      "fullUrl": "http://erp-servicerequest-test.de/Organization/Example-Pharmacy-Organization",
      "resource": {
        "resourceType": "Organization",
        "id": "Example-Pharmacy-Organization",
        "meta": {
          "profile": [
            "https://gematik.de/fhir/erp-servicerequest/StructureDefinition/erp-service-request-organization"
          ]
        },
        "identifier": [
          {
            "type": {
              "coding": [
                {
                  "code": "kim-2.0",
                  "system": "https://gematik.de/fhir/directory/CodeSystem/EndpointDirectoryConnectionType"
                }
              ]
            },
            "system": "http://gematik.de/fhir/sid/KIM-Adresse",
            "value": "arbeitsplatz-1@test-apotheke.kim.telematik"
          },
          {
            "type": {
              "coding": [
                {
                  "system": "http://terminology.hl7.org/CodeSystem/v2-0203",
                  "code": "PRN"
                }
              ]
            },
            "system": "https://gematik.de/fhir/sid/telematik-id",
            "value": "1-57634852"
          },
          {
            "type": {
              "coding": [
                {
                  "system": "http://terminology.hl7.org/CodeSystem/v2-0203",
                  "code": "BSNR"
                }
              ]
            },
            "system": "https://fhir.kbv.de/NamingSystem/KBV_NS_Base_BSNR",
            "value": "581463872"
          }
        ],
        "address": [
          {
            "type": "both",
            "line": [
              "Musterstr. 2"
            ],
            "_line": [
              {
                "extension": [
                  {
                    "url": "http://hl7.org/fhir/StructureDefinition/iso21090-ADXP-houseNumber",
                    "valueString": "2"
                  },
                  {
                    "url": "http://hl7.org/fhir/StructureDefinition/iso21090-ADXP-streetName",
                    "valueString": "Musterstr."
                  }
                ]
              }
            ],
            "city": "Berlin",
            "postalCode": "10623"
          }
        ],
        "name": "Test Apotheke",
        "telecom": [
          {
            "system": "phone",
            "value": "0301234567"
          }
        ]
      }
    }
  ],
  "_timestamp": {
    "value": "2015-02-07T13:28:17.239+02:00"
  }
}
