{
  "resourceType": "Bundle",
  "id": "UC1-Storno-1-Cancellation-Of-Prescription-Requester",
  "meta": {
    "profile": [
      "https://gematik.de/fhir/erp-servicerequest/StructureDefinition/erp-service-request-message-container"
    ]
  },
  "type": "message",
  "identifier": {
    "system": "urn:ietf:rfc:3986",
    "value": "urn:uuid:29888885-6639-481c-934e-4b7b51745084"
  },
  "timestamp": "2025-05-13T15:32:12.239+02:00",
  "entry": [
    {
      "fullUrl": "http://erp-servicerequest-test.de/MessageHeader/UC1-HealthCareService-to-Practitioner-MessageHeader-Storno",
      "resource": {
        "resourceType": "MessageHeader",
        "id": "UC1-HealthCareService-to-Practitioner-MessageHeader-Storno",
        "meta": {
          "profile": [
            "https://gematik.de/fhir/erp-servicerequest/StructureDefinition/erp-service-request-request-header"
          ]
        },
        "source": {
          "contact": {
            "system": "email",
            "value": "info@healthcare.email"
          },
          "name": "HealthCare-Source",
          "software": "HealthCare-Software",
          "version": "1.0.0",
          "endpoint": "http://healthcare.endpoint"
        },
        "focus": [
          {
            "reference": "ServiceRequest/UC1-Cancelled-Prescription-Request"
          }
        ],
        "sender": {
          "identifier": {
            "system": "https://gematik.de/fhir/sid/telematik-id",
            "value": "5-test-telematik-id"
          },
          "display": "Pflegeheim Immergrün"
        },
        "destination": [
          {
            "name": "Praxis Hans Topp-Glücklich",
            "endpoint": "practitioner@test.kim.de"
          }
        ],
        "eventCoding": {
          "code": "eRezept_Rezeptanforderung;Rezeptanfrage_Storno",
          "system": "https://gematik.de/fhir/atf/CodeSystem/service-identifier-cs",
          "display": "Abbruch der Rezeptanfrage"
        },
        "responsible": {
          "reference": "Organization/Example-HealthCareService-Organization"
        }
      }
    },
    {
      "fullUrl": "http://erp-servicerequest-test.de/Organization/Example-HealthCareService-Organization",
      "resource": {
        "resourceType": "Organization",
        "id": "Example-HealthCareService-Organization",
        "meta": {
          "profile": [
            "https://gematik.de/fhir/erp-servicerequest/StructureDefinition/erp-service-request-organization"
          ]
        },
        "type": [
          {
            "coding": [
              {
                "system": "http://ihe-d.de/CodeSystems/PatientBezogenenGesundheitsversorgung",
                "code": "PFL",
                "display": "Pflegeheim"
              }
            ]
          }
        ],
        "contact": [
          {
            "telecom": [
              {
                "system": "phone",
                "value": "0301234567"
              },
              {
                "system": "email",
                "value": "arbeitsplatz-1@test-pflegeheim.kim.telematik"
              }
            ]
          }
        ],
        "address": [
          {
            "type": "both",
            "line": [
              "Musterstr. 2"
            ],
            "_line": [
              {
                "extension": [
                  {
                    "url": "http://hl7.org/fhir/StructureDefinition/iso21090-ADXP-houseNumber",
                    "valueString": "2"
                  },
                  {
                    "url": "http://hl7.org/fhir/StructureDefinition/iso21090-ADXP-streetName",
                    "valueString": "Musterstr."
                  }
                ]
              }
            ],
            "city": "Berlin",
            "postalCode": "10623"
          }
        ],
        "name": "Pflegeheim Immergrün"
      }
    },
    {
      "fullUrl": "http://erp-servicerequest-test.de/ServiceRequest/UC1-Cancelled-Prescription-Request",
      "resource": {
        "resourceType": "ServiceRequest",
        "id": "UC1-Cancelled-Prescription-Request",
        "meta": {
          "profile": [
            "https://gematik.de/fhir/erp-servicerequest/StructureDefinition/erp-service-request-prescription-request"
          ]
        },
        "intent": "order",
        "identifier": [
          {
            "system": "https://gematik.de/fhir/erp-servicerequest/sid/RequestIdentifier",
            "value": "1"
          }
        ],
        "requisition": {
          "system": "https://gematik.de/fhir/erp-servicerequest/sid/ProcedureIdentifier",
          "value": "GroupID-UC1"
        },
        "code": {
          "coding": [
            {
              "code": "prescription-request",
              "system": "https://gematik.de/fhir/erp-servicerequest/CodeSystem/service-request-type-cs"
            }
          ]
        },
        "status": "entered-in-error",
        "subject": {
          "reference": "Patient/Example-Patient"
        },
        "authoredOn": "2025-05-13",
        "requester": {
          "reference": "Organization/Example-HealthCareService-Organization"
        },
        "performer": [
          {
            "identifier": {
              "system": "https://gematik.de/fhir/sid/telematik-id",
              "value": "1-test-telematik-id"
            }
          }
        ],
        "reasonCode": [
          {
            "text": "Falsche Medikation angefragt, neuer Antrag wird erstellt."
          }
        ],
        "note": [
          {
            "text": "Sehr geehrter Herr Topp Glücklich,\n Wir möchten gerne die angehangene Medikation bei ihnen schnellstmöglich anfragen.",
            "time": "2025-05-13T14:23:12+02:00"
          },
          {
            "text": "Sehr geehrter Herr Topp Glücklich,\n Bitte entschuldigen Sie die vorherige anfrage, nach Möglichkeit bitte stornieren, eine neue Anfrage wird erstellt.",
            "time": "2025-05-13T15:31:12+02:00"
          }
        ]
      }
    },
    {
      "fullUrl": "http://erp-servicerequest-test.de/Patient/Example-Patient",
      "resource": {
        "resourceType": "Patient",
        "id": "Example-Patient",
        "meta": {
          "profile": [
            "https://gematik.de/fhir/erp-servicerequest/StructureDefinition/erp-service-request-patient"
          ]
        },
        "name": [
          {
            "use": "official",
            "family": "Königsstein",
            "_family": {
              "extension": [
                {
                  "url": "http://hl7.org/fhir/StructureDefinition/humanname-own-name",
                  "valueString": "Königsstein"
                }
              ]
            },
            "given": [
              "Ludger"
            ]
          }
        ],
        "identifier": [
          {
            "type": {
              "coding": [
                {
                  "system": "http://fhir.de/CodeSystem/identifier-type-de-basis",
                  "code": "GKV"
                }
              ]
            },
            "system": "http://fhir.de/sid/gkv/kvid-10",
            "value": "X234567890"
          }
        ],
        "address": [
          {
            "type": "both",
            "line": [
              "Musterstr. 1"
            ],
            "_line": [
              {
                "extension": [
                  {
                    "url": "http://hl7.org/fhir/StructureDefinition/iso21090-ADXP-houseNumber",
                    "valueString": "1"
                  },
                  {
                    "url": "http://hl7.org/fhir/StructureDefinition/iso21090-ADXP-streetName",
                    "valueString": "Musterstr."
                  }
                ]
              }
            ],
            "city": "Berlin",
            "postalCode": "10623"
          }
        ],
        "birthDate": "1935-06-22"
      }
    }
  ]
}
