{
  "resourceType": "Bundle",
  "id": "UC4-1-Prescription-and-Dispense-Request-To-Prescriber",
  "meta": {
    "profile": [
      "https://gematik.de/fhir/erp-servicerequest/StructureDefinition/erp-service-request-message-container"
    ]
  },
  "type": "message",
  "identifier": {
    "system": "urn:ietf:rfc:3986",
    "value": "urn:uuid:29888885-6639-481c-934e-4b7b51745084"
  },
  "entry": [
    {
      "fullUrl": "http://erp-servicerequest-test.de/MessageHeader/UC4-1-Pharmacy-to-Practitioner-MessageHeader",
      "resource": {
        "resourceType": "MessageHeader",
        "id": "UC4-1-Pharmacy-to-Practitioner-MessageHeader",
        "meta": {
          "profile": [
            "https://gematik.de/fhir/erp-servicerequest/StructureDefinition/erp-service-request-request-header"
          ]
        },
        "focus": [
          {
            "reference": "ServiceRequest/UC4-Initial-Prescription-Request"
          }
        ],
        "sender": {
          "identifier": {
            "system": "http://gematik.de/fhir/sid/KIM-Adresse",
            "value": "arbeitsplatz-1@test-apotheke.kim.telematik"
          },
          "display": "Test Apotheke"
        },
        "source": {
          "endpoint": "http://healthcare.endpoint",
          "name": "HealthCare-Source",
          "software": "HealthCare-Software",
          "version": "1.0.0",
          "contact": {
            "system": "email",
            "value": "info@healthcare.email"
          }
        },
        "destination": [
          {
            "receiver": {
              "identifier": {
                "system": "http://gematik.de/fhir/sid/KIM-Adresse",
                "value": "hans@ytopp-gluecklich.kim.telematik"
              },
              "display": "Praxis Hans Topp-Glücklich"
            },
            "endpoint": "klaus@test.de"
          }
        ],
        "eventCoding": {
          "code": "eRezept_ParenteraleZubereitung;Rezeptanfrage",
          "system": "https://gematik.de/fhir/atf/CodeSystem/service-identifier-cs"
        }
      }
    },
    {
      "fullUrl": "http://erp-servicerequest-test.de/ServiceRequest/UC4-Initial-Prescription-Request",
      "resource": {
        "resourceType": "ServiceRequest",
        "id": "UC4-Initial-Prescription-Request",
        "meta": {
          "profile": [
            "https://gematik.de/fhir/erp-servicerequest/StructureDefinition/service-request-prescription-request"
          ]
        },
        "intent": "order",
        "code": {
          "coding": [
            {
              "code": "prescription-request",
              "system": "https://gematik.de/fhir/erp-servicerequest/CodeSystem/service-request-type-cs"
            }
          ]
        },
        "identifier": [
          {
            "system": "https://gematik.de/fhir/erp-servicerequest/sid/NamingSystemRequestIdentifier",
            "value": "1"
          }
        ],
        "basedOn": [
          {
            "reference": "MedicationRequest/Example-Zyto-Medication-Request"
          }
        ],
        "requisition": {
          "system": "https://gematik.de/fhir/erp-servicerequest/sid/NamingSystemProcedureIdentifier",
          "value": "GroupID-UC4"
        },
        "status": "active",
        "subject": {
          "reference": "Patient/Example-Patient"
        },
        "orderDetail": [
          {
            "coding": [
              {
                "code": "send-to-pharmacy",
                "system": "https://gematik.de/fhir/erp-servicerequest/CodeSystem/prescription-fullfillment-type-cs"
              }
            ]
          }
        ],
        "occurrenceDateTime": "2023-02-01",
        "authoredOn": "2023-01-27",
        "requester": {
          "reference": "Organization/Example-Pharmacy-Organization"
        },
        "performer": [
          {
            "identifier": {
              "system": "http://gematik.de/fhir/sid/KIM-Adresse",
              "value": "hans@ytopp-gluecklich.kim.telematik"
            }
          }
        ]
      }
    },
    {
      "fullUrl": "http://erp-servicerequest-test.de/MedicationRequest/Example-Zyto-Medication-Request",
      "resource": {
        "resourceType": "MedicationRequest",
        "id": "Example-Zyto-Medication-Request",
        "meta": {
          "profile": [
            "https://gematik.de/fhir/erp-servicerequest/StructureDefinition/erp-service-request-medication-request"
          ]
        },
        "status": "active",
        "intent": "order",
        "medicationReference": {
          "reference": "Medication/Example-Zyto-Medication"
        },
        "subject": {
          "reference": "Patient/Example-Patient"
        },
        "authoredOn": "2022-05-20",
        "substitution": {
          "allowedBoolean": false
        }
      }
    },
    {
      "fullUrl": "http://erp-servicerequest-test.de/Medication/Example-Zyto-Medication",
      "resource": {
        "resourceType": "Medication",
        "id": "Example-Zyto-Medication",
        "meta": {
          "profile": [
            "https://fhir.kbv.de/StructureDefinition/KBV_PR_ERP_Medication_Compounding|1.1.0"
          ]
        },
        "extension": [
          {
            "url": "https://fhir.kbv.de/StructureDefinition/KBV_EX_Base_Medication_Type",
            "valueCodeableConcept": {
              "coding": [
                {
                  "system": "http://snomed.info/sct",
                  "version": "http://snomed.info/sct/900000000000207008/version/20220331",
                  "code": "373873005:860781008=362943005",
                  "display": "Pharmaceutical / biologic product (product) : Has product characteristic (attribute) = Manual method (qualifier value)"
                }
              ]
            }
          },
          {
            "url": "https://fhir.kbv.de/StructureDefinition/KBV_EX_ERP_Medication_Category",
            "valueCoding": {
              "code": "00",
              "system": "https://fhir.kbv.de/CodeSystem/KBV_CS_ERP_Medication_Category"
            }
          },
          {
            "url": "https://fhir.kbv.de/StructureDefinition/KBV_EX_ERP_Medication_Vaccine",
            "valueBoolean": false
          }
        ],
        "code": {
          "coding": [
            {
              "system": "https://fhir.kbv.de/CodeSystem/KBV_CS_ERP_Medication_Type",
              "code": "rezeptur"
            }
          ]
        },
        "amount": {
          "numerator": {
            "extension": [
              {
                "url": "https://fhir.kbv.de/StructureDefinition/KBV_EX_ERP_Medication_PackagingSize",
                "valueString": "500"
              }
            ],
            "unit": "ml"
          },
          "denominator": {
            "value": 1
          }
        },
        "ingredient": [
          {
            "strength": {
              "denominator": {
                "value": 1
              },
              "numerator": {
                "value": 180,
                "unit": "mg"
              }
            },
            "itemCodeableConcept": {
              "text": "Etoposid"
            }
          },
          {
            "strength": {
              "denominator": {
                "value": 1
              },
              "numerator": {
                "value": 500,
                "unit": "ml"
              }
            },
            "itemCodeableConcept": {
              "text": "NaCl 0,9 %"
            }
          }
        ],
        "form": {
          "text": "Infusionslösung"
        }
      }
    },
    {
      "fullUrl": "http://erp-servicerequest-test.de/Patient/Example-Patient",
      "resource": {
        "resourceType": "Patient",
        "id": "Example-Patient",
        "meta": {
          "profile": [
            "https://fhir.kbv.de/StructureDefinition/KBV_PR_FOR_Patient|1.1.0"
          ]
        },
        "identifier": [
          {
            "type": {
              "coding": [
                {
                  "system": "http://fhir.de/CodeSystem/identifier-type-de-basis",
                  "code": "GKV"
                }
              ]
            },
            "system": "http://fhir.de/sid/gkv/kvid-10",
            "value": "X234567890"
          }
        ],
        "name": [
          {
            "use": "official",
            "family": "Königsstein",
            "_family": {
              "extension": [
                {
                  "url": "http://hl7.org/fhir/StructureDefinition/humanname-own-name",
                  "valueString": "Königsstein"
                }
              ]
            },
            "given": [
              "Ludger"
            ]
          }
        ],
        "address": [
          {
            "type": "both",
            "line": [
              "Musterstr. 1"
            ],
            "_line": [
              {
                "extension": [
                  {
                    "url": "http://hl7.org/fhir/StructureDefinition/iso21090-ADXP-houseNumber",
                    "valueString": "1"
                  },
                  {
                    "url": "http://hl7.org/fhir/StructureDefinition/iso21090-ADXP-streetName",
                    "valueString": "Musterstr."
                  }
                ]
              }
            ],
            "city": "Berlin",
            "postalCode": "10623"
          }
        ],
        "birthDate": "1935-06-22"
      }
    },
    {
      "fullUrl": "http://erp-servicerequest-test.de/Organization/Example-Pharmacy-Organization",
      "resource": {
        "resourceType": "Organization",
        "id": "Example-Pharmacy-Organization",
        "meta": {
          "profile": [
            "https://gematik.de/fhir/erp-servicerequest/StructureDefinition/erp-service-request-organization"
          ]
        },
        "identifier": [
          {
            "type": {
              "coding": [
                {
                  "code": "kim-2.0",
                  "system": "https://gematik.de/fhir/directory/CodeSystem/EndpointDirectoryConnectionType"
                }
              ]
            },
            "system": "http://gematik.de/fhir/sid/KIM-Adresse",
            "value": "arbeitsplatz-1@test-apotheke.kim.telematik"
          },
          {
            "type": {
              "coding": [
                {
                  "system": "http://terminology.hl7.org/CodeSystem/v2-0203",
                  "code": "PRN"
                }
              ]
            },
            "system": "https://gematik.de/fhir/sid/telematik-id",
            "value": "1-57634852"
          },
          {
            "type": {
              "coding": [
                {
                  "system": "http://terminology.hl7.org/CodeSystem/v2-0203",
                  "code": "BSNR"
                }
              ]
            },
            "system": "https://fhir.kbv.de/NamingSystem/KBV_NS_Base_BSNR",
            "value": "581463872"
          }
        ],
        "address": [
          {
            "type": "both",
            "line": [
              "Musterstr. 2"
            ],
            "_line": [
              {
                "extension": [
                  {
                    "url": "http://hl7.org/fhir/StructureDefinition/iso21090-ADXP-houseNumber",
                    "valueString": "2"
                  },
                  {
                    "url": "http://hl7.org/fhir/StructureDefinition/iso21090-ADXP-streetName",
                    "valueString": "Musterstr."
                  }
                ]
              }
            ],
            "city": "Berlin",
            "postalCode": "10623"
          }
        ],
        "name": "Test Apotheke",
        "telecom": [
          {
            "system": "phone",
            "value": "0301234567"
          }
        ]
      }
    }
  ],
  "_timestamp": {
    "value": "2015-02-07T13:28:17.239+02:00"
  }
}
