{
  "resourceType": "Bundle",
  "id": "UC2-2-Prescription-Request-To-Prescriber",
  "meta": {
    "profile": [
      "https://gematik.de/fhir/erp-servicerequest/StructureDefinition/erp-service-request-message-container"
    ]
  },
  "type": "message",
  "identifier": {
    "system": "urn:ietf:rfc:3986",
    "value": "urn:uuid:29888885-6639-481c-934e-4b7b51745084"
  },
  "timestamp": "2015-02-07T13:28:17.239+02:00",
  "entry": [
    {
      "fullUrl": "http://erp-servicerequest-test.de/MessageHeader/UC2-2-HealthCareService-to-Practitioner-MessageHeader",
      "resource": {
        "resourceType": "MessageHeader",
        "id": "UC2-2-HealthCareService-to-Practitioner-MessageHeader",
        "meta": {
          "profile": [
            "https://gematik.de/fhir/erp-servicerequest/StructureDefinition/erp-service-request-request-header"
          ]
        },
        "source": {
          "contact": {
            "system": "email",
            "value": "info@avs.email"
          },
          "name": "Pharmacy-Source",
          "software": "Pharmacy-Software",
          "version": "1.0.0",
          "endpoint": "mailto:pharmacy@test.kim.de"
        },
        "focus": [
          {
            "reference": "ServiceRequest/UC2-Initial-Prescription-Request"
          }
        ],
        "sender": {
          "identifier": {
            "system": "https://gematik.de/fhir/sid/telematik-id",
            "value": "3-test-telematik-id"
          },
          "display": "Test Apotheke"
        },
        "destination": [
          {
            "receiver": {
              "reference": "Organization/Example-Practitioner-Organization",
              "identifier": {
                "system": "https://gematik.de/fhir/sid/telematik-id",
                "value": "1-test-telematik-id"
              },
              "display": "Praxis Hans Topp-Glücklich"
            },
            "endpoint": "mailto:practitioner@test.kim.de"
          }
        ],
        "responsible": {
          "reference": "Organization/Example-HealthCareService-Organization"
        }
      }
    },
    {
      "fullUrl": "http://erp-servicerequest-test.de/ServiceRequest/UC2-Initial-Prescription-Request",
      "resource": {
        "resourceType": "ServiceRequest",
        "id": "UC2-Initial-Prescription-Request",
        "meta": {
          "profile": [
            "https://gematik.de/fhir/erp-servicerequest/StructureDefinition/erp-service-request-prescription-request"
          ]
        },
        "intent": "order",
        "identifier": [
          {
            "system": "https://gematik.de/fhir/erp-servicerequest/sid/RequestIdentifier",
            "value": "req-1"
          }
        ],
        "requisition": {
          "system": "https://gematik.de/fhir/erp-servicerequest/sid/ProcedureIdentifier",
          "value": "GroupID-2"
        },
        "code": {
          "coding": [
            {
              "code": "prescription-request",
              "system": "https://gematik.de/fhir/erp-servicerequest/CodeSystem/service-request-type-cs"
            }
          ]
        },
        "basedOn": [
          {
            "reference": "MedicationRequest/Example-Initial-Medication-Request"
          }
        ],
        "status": "active",
        "subject": {
          "reference": "Patient/Example-Patient"
        },
        "occurrenceDateTime": "2023-02-01",
        "authoredOn": "2023-01-27",
        "requester": {
          "reference": "Organization/Example-Pharmacy-Organization",
          "type": "APO"
        },
        "performer": [
          {
            "identifier": {
              "system": "https://gematik.de/fhir/sid/telematik-id",
              "value": "1-test-telematik-id"
            }
          }
        ]
      }
    },
    {
      "fullUrl": "http://erp-servicerequest-test.de/MedicationRequest/Example-Initial-Medication-Request",
      "resource": {
        "resourceType": "MedicationRequest",
        "id": "Example-Initial-Medication-Request",
        "meta": {
          "profile": [
            "https://gematik.de/fhir/erp-servicerequest/StructureDefinition/erp-service-request-medication-request"
          ]
        },
        "dispenseRequest": {
          "quantity": {
            "system": "http://unitsofmeasure.org",
            "code": "{Package}",
            "value": 1
          }
        },
        "status": "active",
        "intent": "order",
        "medicationReference": {
          "reference": "Medication/Example-Initial-Medication"
        },
        "subject": {
          "reference": "Patient/Example-Patient"
        }
      }
    },
    {
      "fullUrl": "http://erp-servicerequest-test.de/Medication/Example-Initial-Medication",
      "resource": {
        "resourceType": "Medication",
        "id": "Example-Initial-Medication",
        "meta": {
          "profile": [
            "https://fhir.kbv.de/StructureDefinition/KBV_PR_ERP_Medication_PZN|1.1.0"
          ]
        },
        "extension": [
          {
            "url": "https://fhir.kbv.de/StructureDefinition/KBV_EX_Base_Medication_Type",
            "valueCodeableConcept": {
              "coding": [
                {
                  "system": "http://snomed.info/sct",
                  "version": "http://snomed.info/sct/900000000000207008/version/20220331",
                  "code": "763158003",
                  "display": "Medicinal product (product)"
                }
              ]
            }
          },
          {
            "url": "https://fhir.kbv.de/StructureDefinition/KBV_EX_ERP_Medication_Category",
            "valueCoding": {
              "code": "00",
              "system": "https://fhir.kbv.de/CodeSystem/KBV_CS_ERP_Medication_Category"
            }
          },
          {
            "url": "https://fhir.kbv.de/StructureDefinition/KBV_EX_ERP_Medication_Vaccine",
            "valueBoolean": false
          },
          {
            "url": "http://fhir.de/StructureDefinition/normgroesse",
            "valueCode": "N1"
          }
        ],
        "code": {
          "coding": [
            {
              "system": "http://fhir.de/CodeSystem/ifa/pzn",
              "code": "08585997"
            }
          ],
          "text": "Prospan® Hustensaft 100ml"
        },
        "form": {
          "coding": [
            {
              "system": "https://fhir.kbv.de/CodeSystem/KBV_CS_SFHIR_KBV_DARREICHUNGSFORM",
              "code": "FLE"
            }
          ]
        }
      }
    }
  ]
}
