{
  "resourceType": "Bundle",
  "id": "UC4-2-Prescription-Request-To-Pharmacy",
  "meta": {
    "profile": [
      "https://gematik.de/fhir/erp-servicerequest/StructureDefinition/erp-service-request-message-container"
    ]
  },
  "type": "message",
  "identifier": {
    "system": "urn:ietf:rfc:3986",
    "value": "urn:uuid:c80f6c55-92f8-4518-ba66-cb193da09336"
  },
  "timestamp": "2023-02-01T13:28:17.239+02:00",
  "entry": [
    {
      "fullUrl": "http://erp-servicerequest-test.de/MessageHeader/UC4-2-Practitioner-to-Pharmacy-MessageHeader",
      "resource": {
        "resourceType": "MessageHeader",
        "id": "UC4-2-Practitioner-to-Pharmacy-MessageHeader",
        "meta": {
          "profile": [
            "https://gematik.de/fhir/erp-servicerequest/StructureDefinition/erp-service-request-request-header"
          ]
        },
        "source": {
          "contact": {
            "system": "email",
            "value": "info@pvs.email"
          },
          "name": "Practitioner-Source",
          "software": "Practitioner-Software",
          "version": "1.0.0",
          "endpoint": "mailto:practitioner@test.kim.de"
        },
        "focus": [
          {
            "reference": "ServiceRequest/UC4-Response-Prescription-Request"
          }
        ],
        "sender": {
          "identifier": {
            "system": "https://gematik.de/fhir/sid/telematik-id",
            "value": "1-test-telematik-id"
          },
          "display": "Praxis Hans Topp-Glücklich"
        },
        "destination": [
          {
            "receiver": {
              "identifier": {
                "system": "https://gematik.de/fhir/sid/telematik-id",
                "value": "3-test-telematik-id"
              },
              "display": "Test Apotheke"
            },
            "endpoint": "mailto:pharmacy@test.kim.dee"
          }
        ],
        "eventCoding": {
          "code": "eRezept_ParenteraleZubereitung;Rezeptbestaetigung",
          "system": "https://gematik.de/fhir/atf/CodeSystem/service-identifier-cs"
        }
      }
    },
    {
      "fullUrl": "http://erp-servicerequest-test.de/ServiceRequest/UC4-Response-Prescription-Request",
      "resource": {
        "resourceType": "ServiceRequest",
        "id": "UC4-Response-Prescription-Request",
        "meta": {
          "profile": [
            "https://gematik.de/fhir/erp-servicerequest/StructureDefinition/erp-service-request-prescription-request"
          ]
        },
        "intent": "order",
        "requisition": {
          "system": "https://gematik.de/fhir/erp-servicerequest/sid/NamingSystemProcedureIdentifier",
          "value": "GroupID-UC4"
        },
        "extension": [
          {
            "valueIdentifier": {
              "system": "https://gematik.de/fhir/erp/sid/NamingSystemEPrescriptionToken",
              "value": "Task/160.100.000.000.004.36/$accept?ac=777bea0e13cc9c42ceec14aec3ddee2263325dc2c6c699db115f58fe423607ea"
            },
            "url": "https://gematik.de/fhir/erp-servicerequest/StructureDefinition/eprescription-token-ex"
          }
        ],
        "code": {
          "coding": [
            {
              "code": "prescription-request",
              "system": "https://gematik.de/fhir/erp-servicerequest/CodeSystem/service-request-type-cs"
            }
          ]
        },
        "identifier": [
          {
            "system": "https://gematik.de/fhir/erp-servicerequest/sid/NamingSystemRequestIdentifier",
            "value": "1"
          },
          {
            "system": "https://gematik.de/fhir/erp-servicerequest/sid/patient-id",
            "value": "Patient-ID-e15232e9-01e0-4ce8-b628-71adb9023b21"
          },
          {
            "system": "https://gematik.de/fhir/erp-servicerequest/sid/case-id",
            "value": "Case-ID-85d39ff7-2f02-4bfc-85d5-0ba2752f6076"
          },
          {
            "system": "https://gematik.de/fhir/erp-servicerequest/sid/process-id",
            "value": "Process-ID-db6fd21d-cc85-4411-8567-479a7dc1ef74"
          },
          {
            "system": "https://my-very-own-zyto-identifier",
            "value": "My-ID-bdbdf8a1-ffa4-4f16-a6c4-38e690ac5548"
          }
        ],
        "basedOn": [
          {
            "reference": "MedicationRequest/Example-Response-KBV-Prescription"
          }
        ],
        "status": "completed",
        "subject": {
          "reference": "Patient/Example-Patient"
        },
        "occurrenceDateTime": "2023-01-30",
        "authoredOn": "2023-01-27",
        "requester": {
          "reference": "Organization/Example-Pharmacy-Organization",
          "type": "APO"
        },
        "performer": [
          {
            "reference": "Practitioner/Example-Practitioner"
          }
        ]
      }
    },
    {
      "fullUrl": "http://erp-servicerequest-test.de/MedicationRequest/Example-Response-KBV-Prescription",
      "resource": {
        "resourceType": "MedicationRequest",
        "id": "Example-Response-KBV-Prescription",
        "meta": {
          "profile": [
            "https://fhir.kbv.de/StructureDefinition/KBV_PR_ERP_Prescription|1.1.0"
          ]
        },
        "status": "active",
        "intent": "order",
        "extension": [
          {
            "url": "https://fhir.kbv.de/StructureDefinition/KBV_EX_ERP_EmergencyServicesFee",
            "valueBoolean": false
          },
          {
            "url": "https://fhir.kbv.de/StructureDefinition/KBV_EX_ERP_BVG",
            "valueBoolean": false
          },
          {
            "url": "https://fhir.kbv.de/StructureDefinition/KBV_EX_ERP_Multiple_Prescription",
            "extension": [
              {
                "url": "Kennzeichen",
                "valueBoolean": false
              }
            ]
          },
          {
            "url": "https://fhir.kbv.de/StructureDefinition/KBV_EX_FOR_StatusCoPayment",
            "valueCoding": {
              "code": "1",
              "system": "https://fhir.kbv.de/CodeSystem/KBV_CS_FOR_StatusCoPayment"
            }
          }
        ],
        "dispenseRequest": {
          "quantity": {
            "system": "http://unitsofmeasure.org",
            "code": "{Package}",
            "value": 1
          }
        },
        "dosageInstruction": [
          {
            "extension": [
              {
                "url": "https://fhir.kbv.de/StructureDefinition/KBV_EX_ERP_DosageFlag",
                "valueBoolean": true
              }
            ],
            "text": "2mal tägl. 5ml"
          }
        ],
        "medicationReference": {
          "reference": "Medication/Example-Response-Medication"
        },
        "subject": {
          "reference": "Patient/Example-Patient"
        },
        "authoredOn": "2022-05-20",
        "requester": {
          "reference": "Practitioner/Example-Practitioner"
        },
        "insurance": [
          {
            "reference": "Coverage/Response-Coverage"
          }
        ],
        "substitution": {
          "allowedBoolean": true
        }
      }
    },
    {
      "fullUrl": "http://erp-servicerequest-test.de/Medication/Example-Response-Medication",
      "resource": {
        "resourceType": "Medication",
        "id": "Example-Response-Medication",
        "meta": {
          "profile": [
            "https://fhir.kbv.de/StructureDefinition/KBV_PR_ERP_Medication_PZN|1.1.0"
          ]
        },
        "extension": [
          {
            "url": "https://fhir.kbv.de/StructureDefinition/KBV_EX_Base_Medication_Type",
            "valueCodeableConcept": {
              "coding": [
                {
                  "system": "http://snomed.info/sct",
                  "version": "http://snomed.info/sct/900000000000207008/version/20220331",
                  "code": "763158003",
                  "display": "Medicinal product (product)"
                }
              ]
            }
          },
          {
            "url": "https://fhir.kbv.de/StructureDefinition/KBV_EX_ERP_Medication_Category",
            "valueCoding": {
              "code": "00",
              "system": "https://fhir.kbv.de/CodeSystem/KBV_CS_ERP_Medication_Category"
            }
          },
          {
            "url": "https://fhir.kbv.de/StructureDefinition/KBV_EX_ERP_Medication_Vaccine",
            "valueBoolean": false
          },
          {
            "url": "http://fhir.de/StructureDefinition/normgroesse",
            "valueCode": "N1"
          }
        ],
        "code": {
          "coding": [
            {
              "system": "http://fhir.de/CodeSystem/ifa/pzn",
              "code": "08585997"
            }
          ],
          "text": "Prospan® Hustensaft 100ml N1"
        },
        "form": {
          "coding": [
            {
              "system": "https://fhir.kbv.de/CodeSystem/KBV_CS_SFHIR_KBV_DARREICHUNGSFORM",
              "code": "FLE"
            }
          ]
        }
      }
    }
  ]
}
