{
    "id": "60bd661f-5b2b-49e3-9130-6df3ae9d91bd",
    "meta": {
        "profile": [
            "https://gematik.de/fhir/atf/StructureDefinition/bundle-app-transport-framework"
        ]
    },
    "entry": [
        {
            "fullUrl": "urn:uuid:09f0c5d6-0f55-47e1-8639-0df614aef510",
            "resource": {
                "id": "09f0c5d6-0f55-47e1-8639-0df614aef510",
                "meta": {
                    "profile": [
                        "https://gematik.de/fhir/atf/StructureDefinition/message-header-app-transport"
                    ]
                },
                "destination": [
                    {
                        "endpoint": "http://www.test-apotheke.de",
                        "receiver": {
                            "display": "Testapotheke",
                            "identifier": {
                                "system": "http://gematik.de/fhir/sid/KIM-Adresse",
                                "value": "arbeitsplatz-1@test-apotheke.kim.telematik"
                            }
                        }
                    }
                ],
                "eventCoding": {
                    "code": "eRezept_Rezeptanforderung;Abgabeanfrage",
                    "display": "Anfrage zur Erfüllung eines Rezeptes und Abgabe des Medikaments",
                    "system": "https://gematik.de/fhir/atf/CodeSystem/service-identifier-cs"
                },
                "focus": [
                    {
                        "reference": "urn:uuid:3e8e5bde-8b90-4cfd-9bab-090a61b6c303"
                    }
                ],
                "sender": {
                    "display": "Pflegeheim Immergrün",
                    "identifier": {
                        "system": "http://gematik.de/fhir/sid/KIM-Adresse",
                        "value": "pflegeheim.immergrün.arzt@sana-pflegeheime.kim.telematik"
                    }
                },
                "source": {
                    "contact": {
                        "system": "email",
                        "value": "dev@ps_solutions.de"
                    },
                    "endpoint": "https://ps_solutions.com/jira_helpdesk",
                    "name": "PSSolutions",
                    "software": "Globotron 500",
                    "version": "2.1.3"
                },
                "resourceType": "MessageHeader"
            }
        },
        {
            "fullUrl": "urn:uuid:3e8e5bde-8b90-4cfd-9bab-090a61b6c303",
            "resource": {
                "id": "3e8e5bde-8b90-4cfd-9bab-090a61b6c303",
                "meta": {
                    "profile": [
                        "https://gematik.de/fhir/erp-servicerequest/StructureDefinition/erp-service-request-dispense-request"
                    ]
                },
                "authoredOn": "2023-06-28T22:43:42.256578",
                "basedOn": [
                    {
                        "reference": "a2dd228d-111f-4e68-9558-9946b51d833e"
                    }
                ],
                "code": {
                    "coding": [
                        {
                            "code": "dispense-request",
                            "system": "https://gematik.de/fhir/erp-servicerequest/CodeSystem/service-request-type-cs"
                        }
                    ]
                },
                "identifier": [
                    {
                        "system": "https://gematik.de/fhir/erp-servicerequest/sid/NamingSystemPreDisIdentifier",
                        "value": "3a24fc3a-e25c-4eb1-a54c-07711936e235"
                    },
                    {
                        "system": "https://gematik.de/fhir/erp-servicerequest/sid/NamingSystemProcedureIdentifier",
                        "value": "d7d8c890-1d98-4ab4-82f8-5ef91301fa9b"
                    }
                ],
                "intent": "filler-order",
                "occurrenceDateTime": "2023-06-28T22:43:42.256574",
                "performer": [
                    {
                        "identifier": {
                            "system": "http://gematik.de/fhir/sid/KIM-Adresse"
                        }
                    }
                ],
                "requester": {
                    "reference": "661607e3-5959-4f66-9e83-eddab007a662"
                },
                "requisition": {
                    "system": "https://gematik.de/fhir/erp-servicerequest/sid/NamingSystemProcedureIdentifier",
                    "value": "d7d8c890-1d98-4ab4-82f8-5ef91301fa9b"
                },
                "status": "active",
                "subject": {
                    "reference": "69395807-cb27-4927-aaee-ef1201157451"
                },
                "resourceType": "ServiceRequest"
            }
        },
        {
            "fullUrl": "urn:uuid:a2dd228d-111f-4e68-9558-9946b51d833e",
            "resource": {
                "id": "a2dd228d-111f-4e68-9558-9946b51d833e",
                "meta": {
                    "profile": [
                        "https://fhir.kbv.de/StructureDefinition/KBV_PR_ERP_Prescription|1.1.0"
                    ]
                },
                "extension": [
                    {
                        "url": "https://fhir.kbv.de/StructureDefinition/KBV_EX_ERP_EmergencyServicesFee",
                        "valueBoolean": false
                    },
                    {
                        "url": "https://fhir.kbv.de/StructureDefinition/KBV_EX_ERP_BVG",
                        "valueBoolean": false
                    },
                    {
                        "extension": [
                            {
                                "url": "Kennzeichen",
                                "valueBoolean": false
                            }
                        ],
                        "url": "https://fhir.kbv.de/StructureDefinition/KBV_EX_ERP_Multiple_Prescription"
                    },
                    {
                        "url": "https://fhir.kbv.de/StructureDefinition/KBV_EX_FOR_StatusCoPayment",
                        "valueCoding": {
                            "code": "1",
                            "system": "https://fhir.kbv.de/CodeSystem/KBV_CS_FOR_StatusCoPayment"
                        }
                    }
                ],
                "authoredOn": "2023-06-28",
                "dosageInstruction": [
                    {
                        "extension": [
                            {
                                "url": "https://fhir.kbv.de/StructureDefinition/KBV_EX_ERP_DosageFlag",
                                "valueBoolean": true
                            }
                        ],
                        "text": "2mal tägl. 5ml"
                    }
                ],
                "insurance": [
                    {
                        "reference": "ccad43ec-9782-4978-9f40-6e105d34d23b"
                    }
                ],
                "intent": "order",
                "medicationReference": {
                    "reference": "Example-Initial-Medication"
                },
                "requester": {
                    "reference": "65018e10-dd9c-4740-ab89-47d40665fb62"
                },
                "status": "active",
                "subject": {
                    "reference": "c5bc2a00-849a-4a8e-b850-b44e35eabb1a"
                },
                "substitution": {
                    "allowedBoolean": true
                },
                "resourceType": "MedicationRequest"
            }
        },
        {
            "fullUrl": "urn:uuid:Example-Initial-Medication",
            "resource": {
                "id": "Example-Initial-Medication",
                "meta": {
                    "profile": [
                        "https://fhir.kbv.de/StructureDefinition/KBV_PR_ERP_Medication_PZN|1.1.0"
                    ]
                },
                "extension": [
                    {
                        "url": "https://fhir.kbv.de/StructureDefinition/KBV_EX_Base_Medication_Type",
                        "valueCodeableConcept": {
                            "coding": [
                                {
                                    "code": "763158003",
                                    "display": "Medicinal product (product)",
                                    "system": "http://snomed.info/sct",
                                    "version": "http://snomed.info/sct/900000000000207008/version/20220331"
                                }
                            ]
                        }
                    },
                    {
                        "url": "https://fhir.kbv.de/StructureDefinition/KBV_EX_ERP_Medication_Category",
                        "valueCoding": {
                            "code": "00",
                            "system": "https://fhir.kbv.de/CodeSystem/KBV_CS_ERP_Medication_Category"
                        }
                    },
                    {
                        "url": "https://fhir.kbv.de/StructureDefinition/KBV_EX_ERP_Medication_Vaccine",
                        "valueBoolean": false
                    },
                    {
                        "url": "http://fhir.de/StructureDefinition/normgroesse",
                        "valueCode": "N1"
                    }
                ],
                "code": {
                    "coding": [
                        {
                            "code": "08585997",
                            "system": "http://fhir.de/CodeSystem/ifa/pzn"
                        }
                    ],
                    "text": "Prospan® Hustensaft 100ml"
                },
                "form": {
                    "coding": [
                        {
                            "code": "FLE",
                            "system": "https://fhir.kbv.de/CodeSystem/KBV_CS_SFHIR_KBV_DARREICHUNGSFORM"
                        }
                    ]
                },
                "resourceType": "Medication"
            }
        },
        {
            "fullUrl": "urn:uuid:65018e10-dd9c-4740-ab89-47d40665fb62",
            "resource": {
                "id": "65018e10-dd9c-4740-ab89-47d40665fb62",
                "meta": {
                    "profile": [
                        "https://fhir.kbv.de/StructureDefinition/KBV_PR_FOR_Practitioner|1.1.0"
                    ]
                },
                "identifier": [
                    {
                        "system": "https://fhir.kbv.de/NamingSystem/KBV_NS_Base_ANR",
                        "type": {
                            "coding": [
                                {
                                    "code": "LANR",
                                    "system": "http://terminology.hl7.org/CodeSystem/v2-0203"
                                }
                            ]
                        },
                        "value": "838382202"
                    },
                    {
                        "system": "https://gematik.de/fhir/sid/telematik-id",
                        "type": {
                            "coding": [
                                {
                                    "code": "PRN",
                                    "system": "http://terminology.hl7.org/CodeSystem/v2-0203"
                                }
                            ]
                        },
                        "value": "1-838382202"
                    }
                ],
                "name": [
                    {
                        "family": "Topp-Glücklich",
                        "_family": {
                            "extension": [
                                {
                                    "url": "http://hl7.org/fhir/StructureDefinition/humanname-own-name",
                                    "valueString": "Topp-Glücklich"
                                }
                            ]
                        },
                        "given": [
                            "Hans"
                        ],
                        "prefix": [
                            "Dr. med."
                        ],
                        "use": "official"
                    }
                ],
                "qualification": [
                    {
                        "code": {
                            "coding": [
                                {
                                    "code": "00",
                                    "system": "https://fhir.kbv.de/CodeSystem/KBV_CS_FOR_Qualification_Type"
                                }
                            ],
                            "text": "Arzt"
                        }
                    },
                    {
                        "code": {
                            "coding": [
                                {
                                    "code": "Berufsbezeichnung",
                                    "system": "https://fhir.kbv.de/CodeSystem/KBV_CS_FOR_Berufsbezeichnung"
                                }
                            ],
                            "text": "Hausarzt"
                        }
                    }
                ],
                "resourceType": "Practitioner"
            }
        },
        {
            "fullUrl": "urn:uuid:c5bc2a00-849a-4a8e-b850-b44e35eabb1a",
            "resource": {
                "id": "c5bc2a00-849a-4a8e-b850-b44e35eabb1a",
                "meta": {
                    "profile": [
                        "https://fhir.kbv.de/StructureDefinition/KBV_PR_FOR_Patient|1.1.0"
                    ]
                },
                "address": [
                    {
                        "city": "Berlin",
                        "line": [
                            "Musterstr. 1"
                        ],
                        "_line": [
                            {
                                "extension": [
                                    {
                                        "url": "http://hl7.org/fhir/StructureDefinition/iso21090-ADXP-houseNumber",
                                        "valueString": "1"
                                    }
                                ]
                            },
                            {
                                "extension": [
                                    {
                                        "url": "http://hl7.org/fhir/StructureDefinition/iso21090-ADXP-streetName",
                                        "valueString": "Musterstr."
                                    }
                                ]
                            }
                        ],
                        "postalCode": "10623",
                        "type": "both"
                    }
                ],
                "birthDate": "1935-06-22",
                "identifier": [
                    {
                        "system": "http://fhir.de/sid/gkv/kvid-10",
                        "type": {
                            "coding": [
                                {
                                    "code": "GKV",
                                    "system": "http://fhir.de/CodeSystem/identifier-type-de-basis"
                                }
                            ]
                        },
                        "value": "X234567890"
                    }
                ],
                "name": [
                    {
                        "family": "Königsstein",
                        "_family": {
                            "extension": [
                                {
                                    "url": "http://hl7.org/fhir/StructureDefinition/humanname-own-name",
                                    "valueString": "Königsstein"
                                }
                            ]
                        },
                        "given": [
                            "Ludger"
                        ],
                        "use": "official"
                    }
                ],
                "resourceType": "Patient"
            }
        },
        {
            "fullUrl": "urn:uuid:ccad43ec-9782-4978-9f40-6e105d34d23b",
            "resource": {
                "id": "ccad43ec-9782-4978-9f40-6e105d34d23b",
                "meta": {
                    "profile": [
                        "https://fhir.kbv.de/StructureDefinition/KBV_PR_FOR_Coverage|1.1.0"
                    ]
                },
                "extension": [
                    {
                        "url": "http://fhir.de/StructureDefinition/gkv/besondere-personengruppe",
                        "valueCoding": {
                            "code": "00",
                            "system": "https://fhir.kbv.de/CodeSystem/KBV_CS_SFHIR_KBV_PERSONENGRUPPE"
                        }
                    },
                    {
                        "url": "http://fhir.de/StructureDefinition/gkv/dmp-kennzeichen",
                        "valueCoding": {
                            "code": "00",
                            "system": "https://fhir.kbv.de/CodeSystem/KBV_CS_SFHIR_KBV_DMP"
                        }
                    },
                    {
                        "url": "http://fhir.de/StructureDefinition/gkv/wop",
                        "valueCoding": {
                            "code": "72",
                            "system": "https://fhir.kbv.de/CodeSystem/KBV_CS_SFHIR_ITA_WOP"
                        }
                    },
                    {
                        "url": "http://fhir.de/StructureDefinition/gkv/versichertenart",
                        "valueCoding": {
                            "code": "3",
                            "system": "https://fhir.kbv.de/CodeSystem/KBV_CS_SFHIR_KBV_VERSICHERTENSTATUS"
                        }
                    }
                ],
                "beneficiary": {
                    "reference": "Patient/Example-Patient"
                },
                "payor": [
                    {
                        "display": "AOK Bayern Die Gesundh.",
                        "identifier": {
                            "system": "http://fhir.de/sid/arge-ik/iknr",
                            "value": "108416214"
                        }
                    }
                ],
                "period": {
                    "end": "2040-04-01"
                },
                "status": "active",
                "type": {
                    "coding": [
                        {
                            "code": "GKV",
                            "system": "http://fhir.de/CodeSystem/versicherungsart-de-basis"
                        }
                    ]
                },
                "resourceType": "Coverage"
            }
        },
        {
            "fullUrl": "urn:uuid:7561540c10414fdc8a44714954113bac",
            "resource": {
                "id": "7561540c10414fdc8a44714954113bac",
                "meta": {
                    "profile": [
                        "https://gematik.de/fhir/erp-servicerequest/StructureDefinition/erp-service-request-organization"
                    ]
                },
                "address": [
                    {
                        "city": "Berlin",
                        "line": [
                            "Musterstr. 2"
                        ],
                        "_line": [
                            {
                                "extension": [
                                    {
                                        "url": "http://hl7.org/fhir/StructureDefinition/iso21090-ADXP-houseNumber",
                                        "valueString": "2"
                                    },
                                    {
                                        "url": "http://hl7.org/fhir/StructureDefinition/iso21090-ADXP-streetName",
                                        "valueString": "Musterstr."
                                    }
                                ]
                            }
                        ],
                        "postalCode": "10623",
                        "type": "both"
                    }
                ],
                "identifier": [
                    {
                        "system": "http://gematik.de/fhir/sid/KIM-Adresse",
                        "type": {
                            "coding": [
                                {
                                    "code": "kim-2.0",
                                    "system": "https://gematik.de/fhir/directory/CodeSystem/EndpointDirectoryConnectionType"
                                }
                            ]
                        },
                        "value": "pflegeheim.immergrün.arzt@sana-pflegeheime.kim.telematik"
                    },
                    {
                        "system": "https://gematik.de/fhir/sid/telematik-id",
                        "type": {
                            "coding": [
                                {
                                    "code": "PRN",
                                    "system": "http://terminology.hl7.org/CodeSystem/v2-0203"
                                }
                            ]
                        },
                        "value": "1-031234567"
                    },
                    {
                        "system": "https://fhir.kbv.de/NamingSystem/KBV_NS_Base_BSNR",
                        "type": {
                            "coding": [
                                {
                                    "code": "BSNR",
                                    "system": "http://terminology.hl7.org/CodeSystem/v2-0203"
                                }
                            ]
                        },
                        "value": "031234567"
                    }
                ],
                "name": "Pflegeheim Immergrün",
                "telecom": [
                    {
                        "system": "phone",
                        "value": "0301234567"
                    }
                ],
                "resourceType": "Organization"
            }
        },
        {
            "fullUrl": "urn:uuid:d7d8c890-1d98-4ab4-82f8-5ef91301fa9b",
            "resource": {
                "id": "d7d8c890-1d98-4ab4-82f8-5ef91301fa9b",
                "meta": {
                    "profile": [
                        "https://gematik.de/fhir/erp-servicerequest/StructureDefinition/erp-service-request-prescription-request"
                    ]
                },
                "extension": [
                    {
                        "url": "https://gematik.de/fhir/erp-servicerequest/StructureDefinition/eprescription-token-ex",
                        "valueIdentifier": {
                            "system": "https://gematik.de/fhir/erp/sid/NamingSystemEPrescriptionToken",
                            "value": "Task/160.601.680.465.843/$accept?ac=fF285273D1a0ECBbF9E10DF423fe5f61af9976f41ae6D5DEDdfCF24A2Fd97056"
                        }
                    }
                ],
                "authoredOn": "2023-06-28T22:43:42.233808",
                "basedOn": [
                    {
                        "reference": "a2dd228d-111f-4e68-9558-9946b51d833e"
                    }
                ],
                "code": {
                    "coding": [
                        {
                            "code": "prescription-request",
                            "system": "https://gematik.de/fhir/erp-servicerequest/CodeSystem/service-request-type-cs"
                        }
                    ]
                },
                "identifier": [
                    {
                        "system": "https://gematik.de/fhir/erp-servicerequest/sid/NamingSystemRequestIdentifier",
                        "value": "b1f880f9-e453-45c9-93a8-4be2caaa65d8"
                    },
                    {
                        "system": "https://gematik.de/fhir/erp-servicerequest/sid/NamingSystemPreDisIdentifier",
                        "value": "3a24fc3a-e25c-4eb1-a54c-07711936e235"
                    },
                    {
                        "system": "https://gematik.de/fhir/erp-servicerequest/sid/NamingSystemProcedureIdentifier",
                        "value": "658b56c8-25e0-4ae2-a1a3-aa5923a18189"
                    }
                ],
                "intent": "order",
                "note": [
                    {
                        "text": "Medikament läuft am 31.01.2023 aus. Es sind noch 7 stk übrig."
                    }
                ],
                "occurrenceDateTime": "2023-06-28T22:43:42.233806",
                "orderDetail": [
                    {
                        "coding": [
                            {
                                "code": "return-to-requester",
                                "system": "https://gematik.de/fhir/erp-servicerequest/CodeSystem/prescription-fullfillment-type-cs"
                            }
                        ]
                    }
                ],
                "performer": [
                    {
                        "identifier": {
                            "system": "http://gematik.de/fhir/sid/KIM-Adresse",
                            "value": "practitioner@gluecklich.kim.telematik"
                        }
                    }
                ],
                "reasonCode": [
                    {
                        "coding": [
                            {
                                "code": "medication-runs-out",
                                "system": "https://gematik.de/fhir/erp-servicerequest/CodeSystem/medication-request-reason-cs"
                            }
                        ]
                    }
                ],
                "reasonReference": [
                    {
                        "reference": "Medication-Runs-Out-Example-dateTime"
                    },
                    {
                        "reference": "Medication-Runs-Out-Example-Quantity"
                    }
                ],
                "requester": {
                    "reference": "661607e3-5959-4f66-9e83-eddab007a662"
                },
                "requisition": {
                    "system": "https://gematik.de/fhir/erp-servicerequest/sid/NamingSystemProcedureIdentifier",
                    "value": "658b56c8-25e0-4ae2-a1a3-aa5923a18189"
                },
                "status": "completed",
                "subject": {
                    "reference": "69395807-cb27-4927-aaee-ef1201157451"
                },
                "resourceType": "ServiceRequest"
            }
        }
    ],
    "identifier": {
        "system": "urn:ietf:rfc:3986",
        "value": "urn:uuid:60bd661f-5b2b-49e3-9130-6df3ae9d91bd"
    },
    "timestamp": "2023-06-28T20:43:42.256972+00:00",
    "type": "message",
    "resourceType": "Bundle"
}