<?xml version='1.0' encoding='utf-8'?>
<?xml-stylesheet type="text/xsl" href="../../rezeptanforderung.xsl" ?>
<Bundle xmlns="http://hl7.org/fhir">
    <id value="ef0c9a95-e4f6-49fc-a178-663dd1d0bcbf"/>
    <meta>
        <profile value="https://gematik.de/fhir/erp-servicerequest/StructureDefinition/erp-service-request-message-container"/>
    </meta>
    <identifier>
        <system value="urn:ietf:rfc:3986"/>
        <value value="urn:uuid:ef0c9a95-e4f6-49fc-a178-663dd1d0bcbf"/>
    </identifier>
    <type value="message"/>
    <timestamp value="2024-10-31T10:00:37.008522+00:00"/>
    <entry>
        <fullUrl value="urn:uuid:877b37d4-f0fa-449d-b1a0-d344e924f246"/>
        <resource>
            <MessageHeader>
                <id value="877b37d4-f0fa-449d-b1a0-d344e924f246"/>
                <meta>
                    <profile value="https://gematik.de/fhir/erp-servicerequest/StructureDefinition/erp-service-request-request-header"/>
                </meta>
                <eventCoding>
                    <system value="https://gematik.de/fhir/atf/CodeSystem/service-identifier-cs"/>
                    <code value="eRezept_Rezeptanforderung;Rezeptanfrage"/>
                    <display value="Anfrage an einen Arzt ein Rezept auszustellen"/>
                </eventCoding>
                <destination>
                    <name value="Praxis Hans Topp-Glücklich"/>
                    <endpoint value="mailto:practitioner@test.kim.de"/>
                </destination>
                <sender>
                    <identifier>
                        <system value="https://gematik.de/fhir/sid/telematik-id"/>
                        <value value="5-test-telematik-id-pflegeinrichtung"/>
                    </identifier>
                    <display value="Pflegeheim Immergrün"/>
                </sender>
                <source>
                    <name value="HealthCare-Source"/>
                    <software value="HealthCare-Software"/>
                    <version value="1.0.0"/>
                    <contact>
                        <system value="email"/>
                        <value value="info@hcs.email"/>
                    </contact>
                    <endpoint value="mailto:healthcare-service@test.kim.de"/>
                </source>
                <responsible>
                    <reference value="urn:uuid:9bedbd97-b3da-44ed-89bb-27a1198c12c7"/>
                </responsible>
                <focus>
                    <reference value="urn:uuid:b3260d72-429d-44af-ac27-3bb87c37d584"/>
                </focus>
            </MessageHeader>
        </resource>
    </entry>
    <entry>
        <fullUrl value="urn:uuid:b3260d72-429d-44af-ac27-3bb87c37d584"/>
        <resource>
            <ServiceRequest>
                <id value="b3260d72-429d-44af-ac27-3bb87c37d584"/>
                <meta>
                    <profile value="https://gematik.de/fhir/erp-servicerequest/StructureDefinition/erp-service-request-prescription-request"/>
                </meta>
                <identifier>
                    <system value="https://gematik.de/fhir/erp-servicerequest/sid/RequestIdentifier"/>
                    <value value="b3d1f329-4b07-4b14-a092-9a1c7c63755e"/>
                </identifier>
                <identifier>
                    <system value="https://gematik.de/fhir/erp-servicerequest/sid/ProcedureIdentifier"/>
                    <value value="0a600795-1c20-4215-bb81-1aad1dbacb20"/>
                </identifier>
                <basedOn>
                    <reference value="urn:uuid:2ee9371f-0044-498e-bae7-07e74df413a5"/>
                </basedOn>
                <requisition>
                    <system value="https://gematik.de/fhir/erp-servicerequest/sid/ProcedureIdentifier"/>
                    <value value="0a600795-1c20-4215-bb81-1aad1dbacb20"/>
                </requisition>
                <status value="active"/>
                <intent value="order"/>
                <priority value="urgent"/>
                <code>
                    <coding>
                        <system value="https://gematik.de/fhir/erp-servicerequest/CodeSystem/service-request-type-cs"/>
                        <code value="prescription-request"/>
                    </coding>
                </code>
                <orderDetail>
                    <coding>
                        <system value="https://gematik.de/fhir/erp-servicerequest/CodeSystem/prescription-fullfillment-type-cs"/>
                        <code value="return-to-requester"/>
                    </coding>
                </orderDetail>
                <subject>
                    <reference value="urn:uuid:8c0e25a0-187e-45b5-b37f-73c8fc68931a"/>
                </subject>
                <occurrenceDateTime value="2024-10-31T11:00:37.008000+01:00"/>
                <authoredOn value="2024-10-31T11:00:37.008003+01:00"/>
                <requester>
                    <reference value="urn:uuid:9bedbd97-b3da-44ed-89bb-27a1198c12c7"/>
                </requester>
                <performer>
                    <identifier>
                        <system value="http://gematik.de/fhir/sid/KIM-Adresse"/>
                        <value value="practitioner@gluecklich.kim.telematik"/>
                    </identifier>
                </performer>
                <reasonCode>
                    <extension url="https://gematik.de/fhir/erp-servicerequest/StructureDefinition/remaining-supply-ex">
                        <valueQuantity>
                            <value value="7.0"/>
                            <unit value="Stück"/>
                        </valueQuantity>
                    </extension>
                    <coding>
                        <system value="https://gematik.de/fhir/erp-servicerequest/CodeSystem/medication-request-reason-cs"/>
                        <code value="exhausted-range"/>
                    </coding>
                    <text value="Medikament läuft am 31.01.2025 aus. Es sind noch 7 stk übrig."/>
                </reasonCode>
                <reasonReference>
                    <reference value="urn:uuid:787ed3b9-18cb-41a2-883c-71d168ea648e"/>
                </reasonReference>
                <reasonReference>
                    <reference value="urn:uuid:d68f2b9c-6d2e-42e7-9c39-2187c2bc327b"/>
                </reasonReference>
                <note>
                    <time value="2024-10-31T11:00:37.008194+01:00"/>
                    <text value="Wird weiterhin benötigt, bitte um Verlängerung."/>
                </note>
            </ServiceRequest>
        </resource>
    </entry>
    <entry>
        <fullUrl value="urn:uuid:d5699f4f-df3b-40f3-8ad7-24d7238467b7"/>
        <resource>
            <Medication>
                <id value="d5699f4f-df3b-40f3-8ad7-24d7238467b7"/>
                <meta>
                    <profile value="https://fhir.kbv.de/StructureDefinition/KBV_PR_ERP_Medication_PZN|1.1.0"/>
                </meta>
                <extension url="https://fhir.kbv.de/StructureDefinition/KBV_EX_Base_Medication_Type">
                    <valueCodeableConcept>
                        <coding>
                            <system value="http://snomed.info/sct"/>
                            <version value="http://snomed.info/sct/900000000000207008/version/20220331"/>
                            <code value="763158003"/>
                            <display value="Medicinal product (product)"/>
                        </coding>
                    </valueCodeableConcept>
                </extension>
                <extension url="https://fhir.kbv.de/StructureDefinition/KBV_EX_ERP_Medication_Category">
                    <valueCoding>
                        <system value="https://fhir.kbv.de/CodeSystem/KBV_CS_ERP_Medication_Category"/>
                        <code value="00"/>
                    </valueCoding>
                </extension>
                <extension url="https://fhir.kbv.de/StructureDefinition/KBV_EX_ERP_Medication_Vaccine">
                    <valueBoolean value="false"/>
                </extension>
                <extension url="http://fhir.de/StructureDefinition/normgroesse">
                    <valueCode value="N1"/>
                </extension>
                <code>
                    <coding>
                        <system value="http://fhir.de/CodeSystem/ifa/pzn"/>
                        <code value="08585997"/>
                    </coding>
                    <text value="Prospan® Hustensaft 100ml"/>
                </code>
                <form>
                    <coding>
                        <system value="https://fhir.kbv.de/CodeSystem/KBV_CS_SFHIR_KBV_DARREICHUNGSFORM"/>
                        <code value="FLE"/>
                    </coding>
                </form>
            </Medication>
        </resource>
    </entry>
    <entry>
        <fullUrl value="urn:uuid:8c0e25a0-187e-45b5-b37f-73c8fc68931a"/>
        <resource>
            <Patient>
                <id value="8c0e25a0-187e-45b5-b37f-73c8fc68931a"/>
                <meta>
                    <profile value="https://gematik.de/fhir/erp-servicerequest/StructureDefinition/erp-service-request-patient"/>
                </meta>
                <identifier>
                    <system value="http://fhir.de/sid/gkv/kvid-10"/>
                    <value value="X234567890"/>
                </identifier>
                <name>
                    <use value="official"/>
                    <family value="Königsstein">
                        <extension url="http://hl7.org/fhir/StructureDefinition/humanname-own-name">
                            <valueString value="Königsstein"/>
                        </extension>
                    </family>
                    <given value="Ludger"/>
                </name>
                <birthDate value="1935-06-22"/>
                <address>
                    <type value="both"/>
                    <line value="Musterstr. 1">
                        <extension url="http://hl7.org/fhir/StructureDefinition/iso21090-ADXP-houseNumber">
                            <valueString value="1"/>
                        </extension>
                        <extension url="http://hl7.org/fhir/StructureDefinition/iso21090-ADXP-streetName">
                            <valueString value="Musterstr."/>
                        </extension>
                    </line>
                    <city value="Berlin"/>
                    <postalCode value="10623"/>
                </address>
            </Patient>
        </resource>
    </entry>
    <entry>
        <fullUrl value="urn:uuid:2ee9371f-0044-498e-bae7-07e74df413a5"/>
        <resource>
            <MedicationRequest>
                <id value="2ee9371f-0044-498e-bae7-07e74df413a5"/>
                <meta>
                    <profile value="https://gematik.de/fhir/erp-servicerequest/StructureDefinition/erp-service-request-medication-request"/>
                </meta>
                <extension url="https://gematik.de/fhir/erp-servicerequest/StructureDefinition/prescription-id-ex">
                    <valueIdentifier>
                        <system value="https://gematik.de/fhir/erp/NamingSystem/GEM_ERP_NS_PrescriptionId"/>
                        <value value="160.100.000.000.001.36"/>
                    </valueIdentifier>
                </extension>
                <status value="active"/>
                <intent value="order"/>
                <medicationReference>
                    <reference value="urn:uuid:d5699f4f-df3b-40f3-8ad7-24d7238467b7"/>
                </medicationReference>
                <subject>
                    <reference value="urn:uuid:8c0e25a0-187e-45b5-b37f-73c8fc68931a"/>
                </subject>
                <authoredOn value="2024-10-31T11:00:37.007413+01:00"/>
                <dosageInstruction>
                    <text value="2mal tägl. 5ml"/>
                </dosageInstruction>
                <dispenseRequest>
                    <quantity>
                        <value value="1.0"/>
                        <system value="http://unitsofmeasure.org"/>
                        <code value="{Package}"/>
                    </quantity>
                </dispenseRequest>
            </MedicationRequest>
        </resource>
    </entry>
    <entry>
        <fullUrl value="urn:uuid:9bedbd97-b3da-44ed-89bb-27a1198c12c7"/>
        <resource>
            <Organization>
                <id value="9bedbd97-b3da-44ed-89bb-27a1198c12c7"/>
                <meta>
                    <profile value="https://gematik.de/fhir/erp-servicerequest/StructureDefinition/erp-service-request-organization"/>
                    <tag>
                        <system value="https://gematik.de/fhir/directory/CodeSystem/Origin"/>
                        <code value="owner"/>
                    </tag>
                </meta>
                <identifier>
                    <system value="https://gematik.de/fhir/sid/telematik-id"/>
                    <value value="1-031234567"/>
                </identifier>
                <name value="Pflegeheim Immergrün"/>
                <address>
                    <type value="both"/>
                    <line value="Musterstr. 2"/>
                    <city value="Berlin"/>
                    <postalCode value="10623"/>
                </address>
                <contact>
                    <telecom>
                        <system value="phone"/>
                        <value value="0301234567"/>
                    </telecom>
                    <telecom>
                        <system value="email"/>
                        <value value="pflegeheim.immergrün.arzt@sana-pflegeheime.kim.telematik"/>
                    </telecom>
                </contact>
            </Organization>
        </resource>
    </entry>
    <entry>
        <fullUrl value="urn:uuid:787ed3b9-18cb-41a2-883c-71d168ea648e"/>
        <resource>
            <Observation>
                <id value="787ed3b9-18cb-41a2-883c-71d168ea648e"/>
                <meta>
                    <profile value="https://gematik.de/fhir/erp-servicerequest/StructureDefinition/erp-service-request-remaining-medication"/>
                </meta>
                <status value="final"/>
                <code>
                    <coding>
                        <system value="https://gematik.de/fhir/erp-servicerequest/CodeSystem/medication-observation-cs"/>
                        <code value="range-of-medication"/>
                    </coding>
                </code>
                <subject>
                    <reference value="urn:uuid:8c0e25a0-187e-45b5-b37f-73c8fc68931a"/>
                </subject>
                <valueDateTime value="2023-01-31"/>
            </Observation>
        </resource>
    </entry>
    <entry>
        <fullUrl value="urn:uuid:d68f2b9c-6d2e-42e7-9c39-2187c2bc327b"/>
        <resource>
            <Observation>
                <id value="d68f2b9c-6d2e-42e7-9c39-2187c2bc327b"/>
                <meta>
                    <profile value="https://gematik.de/fhir/erp-servicerequest/StructureDefinition/erp-service-request-remaining-medication"/>
                </meta>
                <status value="final"/>
                <code>
                    <coding>
                        <system value="https://gematik.de/fhir/erp-servicerequest/CodeSystem/medication-observation-cs"/>
                        <code value="range-of-medication"/>
                    </coding>
                </code>
                <subject>
                    <reference value="urn:uuid:8c0e25a0-187e-45b5-b37f-73c8fc68931a"/>
                </subject>
                <valueQuantity>
                    <value value="7.0"/>
                    <unit value="stk"/>
                </valueQuantity>
            </Observation>
        </resource>
    </entry>
</Bundle>