<Bundle xmlns="http://hl7.org/fhir">
  <id value="UC1-MULTI-2-Response-Prescription-Request-2" />
  <meta>
    <profile value="https://gematik.de/fhir/erp-servicerequest/StructureDefinition/erp-service-request-message-container" />
  </meta>
  <identifier>
    <system value="urn:ietf:rfc:3986" />
    <value value="urn:uuid:29888885-6639-481c-934e-4b7b51745084" />
  </identifier>
  <type value="message" />
  <timestamp value="2025-05-14T08:15:12+02:00" />
  <entry>
    <fullUrl value="http://erp-servicerequest-test.de/MessageHeader/UC1-MULTI-Practitioner-to-HealthCareService-MessageHeader-2" />
    <resource>
      <MessageHeader>
        <id value="UC1-MULTI-Practitioner-to-HealthCareService-MessageHeader-2" />
        <meta>
          <profile value="https://gematik.de/fhir/erp-servicerequest/StructureDefinition/erp-service-request-request-header" />
        </meta>
        <eventCoding>
          <system value="https://gematik.de/fhir/atf/CodeSystem/service-identifier-cs" />
          <code value="eRezept_Rezeptanforderung;Rezeptanfrage_Storno" />
        </eventCoding>
        <destination>
          <name value="Pflegeheim Immergrün" />
          <endpoint value="mailto:healthcare-service@test.kim.de" />
        </destination>
        <sender>
          <identifier>
            <system value="https://gematik.de/fhir/sid/telematik-id" />
            <value value="1-test-telematik-id" />
          </identifier>
          <display value="Praxis Hans Topp-Glücklich" />
        </sender>
        <source>
          <name value="Practitioner-Source" />
          <software value="Practitioner-Software" />
          <version value="1.0.0" />
          <contact>
            <system value="email" />
            <value value="info@pvs_solutions.email" />
          </contact>
          <endpoint value="https://pvs_solutions.com/jira_helpdesk" />
        </source>
        <responsible>
          <reference value="Organization/Example-Practitioner-Organization" />
        </responsible>
        <focus>
          <reference value="ServiceRequest/UC1-MULTI-Response-Prescription-Request-2" />
        </focus>
      </MessageHeader>
    </resource>
  </entry>
  <entry>
    <fullUrl value="http://erp-servicerequest-test.de/Organization/Example-Practitioner-Organization" />
    <resource>
      <Organization>
        <id value="Example-Practitioner-Organization" />
        <meta>
          <profile value="https://gematik.de/fhir/erp-servicerequest/StructureDefinition/erp-service-request-organization" />
        </meta>
        <identifier>
          <system value="https://gematik.de/fhir/sid/telematik-id" />
          <value value="123456789" />
        </identifier>
        <type>
          <coding>
            <system value="https://gematik.de/fhir/directory/CodeSystem/OrganizationProfessionOID" />
            <code value="1.2.276.0.76.4.50" />
            <display value="Betriebsstätte Arzt" />
          </coding>
        </type>
        <name value="Test Arztpraxis" />
        <address>
          <type value="both" />
          <line value="Musterarztstr. 3" />
          <city value="Berlin" />
          <postalCode value="10623" />
        </address>
        <contact>
          <telecom>
            <system value="phone" />
            <value value="0307654321" />
          </telecom>
        </contact>
      </Organization>
    </resource>
  </entry>
  <entry>
    <fullUrl value="http://erp-servicerequest-test.de/ServiceRequest/UC1-MULTI-Response-Prescription-Request-2" />
    <resource>
      <ServiceRequest>
        <id value="UC1-MULTI-Response-Prescription-Request-2" />
        <meta>
          <profile value="https://gematik.de/fhir/erp-servicerequest/StructureDefinition/erp-service-request-prescription-request" />
        </meta>
        <identifier>
          <system value="https://gematik.de/fhir/erp-servicerequest/sid/RequestIdentifier" />
          <value value="multi-2" />
        </identifier>
        <basedOn>
          <reference value="MedicationRequest/Example-Initial-Medication-Request-2" />
        </basedOn>
        <requisition>
          <system value="https://gematik.de/fhir/erp-servicerequest/sid/ProcedureIdentifier" />
          <value value="GroupID-UC1-MULTI" />
        </requisition>
        <status value="revoked" />
        <intent value="order" />
        <code>
          <coding>
            <system value="https://gematik.de/fhir/erp-servicerequest/CodeSystem/service-request-type-cs" />
            <code value="prescription-request" />
          </coding>
        </code>
        <subject>
          <reference value="Patient/Example-Patient-2" />
        </subject>
        <authoredOn value="2025-05-13" />
        <performer>
          <identifier>
            <system value="https://gematik.de/fhir/sid/telematik-id" />
            <value value="1-test-telematik-id" />
          </identifier>
        </performer>
        <reasonCode>
          <text value="Hr. Edgarson braucht das Buscopan nicht mehr, wird abgesetzt und aus dem Medkationsplan entfernt." />
        </reasonCode>
        <note>
          <time value="2025-05-14T08:12:23+02:00" />
          <text value="Sehr geehrte Damen und Herren,&#xA; Die Rezeptanfrage wurde abgelehnt, s. Grund." />
        </note>
      </ServiceRequest>
    </resource>
  </entry>
  <entry>
    <fullUrl value="http://erp-servicerequest-test.de/Patient/Example-Patient-2" />
    <resource>
      <Patient>
        <id value="Example-Patient-2" />
        <meta>
          <profile value="https://gematik.de/fhir/erp-servicerequest/StructureDefinition/erp-service-request-patient" />
        </meta>
        <identifier>
          <system value="http://fhir.de/sid/gkv/kvid-10" />
          <value value="X098765432" />
        </identifier>
        <name>
          <use value="official" />
          <family value="Edgarson">
            <extension url="http://hl7.org/fhir/StructureDefinition/humanname-own-name">
              <valueString value="Edgarson" />
            </extension>
          </family>
          <given value="Peter" />
        </name>
        <birthDate value="1974-01-31" />
        <address>
          <type value="both" />
          <line value="Erikastraße 43">
            <extension url="http://hl7.org/fhir/StructureDefinition/iso21090-ADXP-houseNumber">
              <valueString value="43" />
            </extension>
            <extension url="http://hl7.org/fhir/StructureDefinition/iso21090-ADXP-streetName">
              <valueString value="Erikastraße" />
            </extension>
          </line>
          <city value="Berlin" />
          <postalCode value="10742" />
        </address>
      </Patient>
    </resource>
  </entry>
  <entry>
    <fullUrl value="http://erp-servicerequest-test.de/MedicationRequest/Example-Initial-Medication-Request-2" />
    <resource>
      <MedicationRequest>
        <id value="Example-Initial-Medication-Request-2" />
        <meta>
          <profile value="https://gematik.de/fhir/erp-servicerequest/StructureDefinition/erp-service-request-medication-request" />
        </meta>
        <status value="active" />
        <intent value="order" />
        <medicationReference>
          <reference value="Medication/Example-Initial-Medication-2" />
        </medicationReference>
        <subject>
          <reference value="Patient/Example-Patient-2" />
        </subject>
        <dispenseRequest>
          <quantity>
            <value value="2" />
            <unit value="Packungen" />
            <system value="http://unitsofmeasure.org" />
            <code value="{Package}" />
          </quantity>
        </dispenseRequest>
      </MedicationRequest>
    </resource>
  </entry>
  <entry>
    <fullUrl value="http://erp-servicerequest-test.de/Medication/Example-Initial-Medication-2" />
    <resource>
      <Medication>
        <id value="Example-Initial-Medication-2" />
        <meta>
          <profile value="https://fhir.kbv.de/StructureDefinition/KBV_PR_ERP_Medication_PZN|1.3" />
        </meta>
        <extension url="https://fhir.kbv.de/StructureDefinition/KBV_EX_Base_Medication_Type">
          <valueCodeableConcept>
            <coding>
              <system value="http://snomed.info/sct" />
              <version value="http://snomed.info/sct/11000274103/version/20240515" />
              <code value="763158003" />
              <display value="Medicinal product (product)" />
            </coding>
          </valueCodeableConcept>
        </extension>
        <extension url="https://fhir.kbv.de/StructureDefinition/KBV_EX_ERP_Medication_Category">
          <valueCoding>
            <system value="https://fhir.kbv.de/CodeSystem/KBV_CS_ERP_Medication_Category" />
            <code value="00" />
          </valueCoding>
        </extension>
        <extension url="https://fhir.kbv.de/StructureDefinition/KBV_EX_ERP_Medication_Vaccine">
          <valueBoolean value="false" />
        </extension>
        <extension url="http://fhir.de/StructureDefinition/normgroesse">
          <valueCode value="N1" />
        </extension>
        <code>
          <coding>
            <system value="http://fhir.de/CodeSystem/ifa/pzn" />
            <code value="02483617" />
          </coding>
          <text value="Buscopan PLUS 20 St" />
        </code>
        <form>
          <coding>
            <system value="https://fhir.kbv.de/CodeSystem/KBV_CS_SFHIR_KBV_DARREICHUNGSFORM" />
            <code value="FTA" />
          </coding>
        </form>
        <ingredient>
          <itemCodeableConcept>
            <coding>
              <system value="http://fhir.de/CodeSystem/ask" />
              <code value="A03BB01" />
            </coding>
            <text value="Butylscopolaminium-bromid" />
          </itemCodeableConcept>
          <strength>
            <numerator>
              <value value="10" />
              <unit value="mg" />
            </numerator>
            <denominator>
              <value value="1" />
              <unit value="Stück" />
            </denominator>
          </strength>
        </ingredient>
        <ingredient>
          <itemCodeableConcept>
            <coding>
              <system value="http://fhir.de/CodeSystem/ask" />
              <code value="N02BE01" />
            </coding>
            <text value="Paracetamol" />
          </itemCodeableConcept>
          <strength>
            <numerator>
              <value value="500" />
              <unit value="mg" />
            </numerator>
            <denominator>
              <value value="1" />
              <unit value="Stück" />
            </denominator>
          </strength>
        </ingredient>
      </Medication>
    </resource>
  </entry>
</Bundle>