<?xml version='1.0' encoding='utf-8'?>
<?xml-stylesheet type="text/xsl" href="../../rezeptanforderung.xsl" ?>
<Bundle xmlns="http://hl7.org/fhir">
    <id value="3929ba49-4343-4b93-bbc1-ca6ff13bbebc"/>
    <meta>
        <profile value="https://gematik.de/fhir/erp-servicerequest/StructureDefinition/erp-service-request-message-container"/>
    </meta>
    <identifier>
        <system value="urn:ietf:rfc:3986"/>
        <value value="urn:uuid:3929ba49-4343-4b93-bbc1-ca6ff13bbebc"/>
    </identifier>
    <type value="message"/>
    <timestamp value="2024-10-31T14:53:04.964835+00:00"/>
    <entry>
        <fullUrl value="urn:uuid:178bc554-ce46-4e7d-ac20-13088ab50af7"/>
        <resource>
            <MessageHeader>
                <id value="178bc554-ce46-4e7d-ac20-13088ab50af7"/>
                <meta>
                    <profile value="https://gematik.de/fhir/erp-servicerequest/StructureDefinition/erp-service-request-request-header"/>
                </meta>
                <eventCoding>
                    <system value="https://gematik.de/fhir/atf/CodeSystem/service-identifier-cs"/>
                    <code value="eRezept_Rezeptanforderung;Abgabebestaetigung"/>
                    <display value="Bestätigung der Erfüllung und Abgabe eines Medikamentes"/>
                </eventCoding>
                <destination>
                    <name value="Pflegeheim Immergrün"/>
                    <endpoint value="5-test-telematik-id-pflegeinrichtung"/>
                </destination>
                <sender>
                    <identifier>
                        <system value="https://gematik.de/fhir/sid/telematik-id"/>
                        <value value="5-test-telematik-id-apotheke"/>
                    </identifier>
                    <display value="Test Apotheke"/>
                </sender>
                <source>
                    <name value="ApoSoft Gmbh"/>
                    <software value="ApoFlott"/>
                    <version value="1.1.3"/>
                    <contact>
                        <system value="email"/>
                        <value value="issues@apo-flott.de"/>
                    </contact>
                    <endpoint value="https://aposoft.de/issues"/>
                </source>
                <responsible>
                    <reference value="urn:uuid:1619cd88-6b51-4a60-a432-31a078a4fbf7"/>
                </responsible>
                <focus>
                    <reference value="urn:uuid:75508c16-a224-4da0-a1b7-acaa08c2ffaa"/>
                </focus>
            </MessageHeader>
        </resource>
    </entry>
    <entry>
        <fullUrl value="urn:uuid:75508c16-a224-4da0-a1b7-acaa08c2ffaa"/>
        <resource>
            <ServiceRequest>
                <id value="75508c16-a224-4da0-a1b7-acaa08c2ffaa"/>
                <meta>
                    <profile value="https://gematik.de/fhir/erp-servicerequest/StructureDefinition/erp-service-request-dispense-request"/>
                </meta>
                <identifier>
                    <system value="https://gematik.de/fhir/erp-servicerequest/sid/RequestIdentifier"/>
                    <value value="f1574863-2bd9-4018-a3ff-27cc01f875ad"/>
                </identifier>
                <identifier>
                    <system value="https://gematik.de/fhir/erp-servicerequest/sid/ProcedureIdentifier"/>
                    <value value="0455ff78-ff45-4c31-8dc4-9415844ad543"/>
                </identifier>
                <basedOn>
                    <reference value="uuid:819d6fcd-def7-49a4-bb9b-49dbee04ac1f"/>
                </basedOn>
                <requisition>
                    <system value="https://gematik.de/fhir/erp-servicerequest/sid/ProcedureIdentifier"/>
                    <value value="0455ff78-ff45-4c31-8dc4-9415844ad543"/>
                </requisition>
                <status value="completed"/>
                <intent value="filler-order"/>
                <priority value="urgent"/>
                <code>
                    <coding>
                        <system value="https://gematik.de/fhir/erp-servicerequest/CodeSystem/service-request-type-cs"/>
                        <code value="dispense-request"/>
                    </coding>
                </code>
                <subject>
                    <reference value="Patient/92a19c11-7b82-4735-be2b-e78aa685504c"/>
                </subject>
                <occurrenceDateTime value="2024-10-31T15:53:03.836789+01:00"/>
                <authoredOn value="2024-10-31T15:53:03.836798+01:00"/>
                <requester>
                    <reference value="Organization/258ad91c-45bd-4aa0-a161-9e84187c1df6"/>
                </requester>
                <performer>
                    <identifier>
                        <system value="http://gematik.de/fhir/sid/KIM-Adresse"/>
                        <value value="Test Apotheke"/>
                    </identifier>
                </performer>
                <note>
                    <time value="2024-10-31T15:53:03.836914+01:00"/>
                    <text value="Bitte wie üblich zur Abholung bereitlegen."/>
                </note>
            </ServiceRequest>
        </resource>
    </entry>
    <entry>
        <fullUrl value="urn:uuid:None"/>
        <resource>
            <Bundle>
                <type value="transaction"/>
                <entry>
                    <fullUrl value="http://erp-servicerequest-test.de/MedicationDispense/8246f9be-acea-4da4-b441-a18185463066"/>
                    <resource>
                        <MedicationDispense>
                            <id value="8246f9be-acea-4da4-b441-a18185463066"/>
                            <meta>
                                <profile value="https://gematik.de/fhir/erp/StructureDefinition/GEM_ERP_PR_MedicationDispense|1.2"/>
                            </meta>
                            <contained>
                                <Medication>
                                    <id value="de7f0e53-3959-4b2e-9f8b-30bc4a599ca7"/>
                                    <meta>
                                        <profile value="https://fhir.kbv.de/StructureDefinition/KBV_PR_ERP_Medication_PZN|1.1.0"/>
                                    </meta>
                                    <code>
                                        <coding>
                                            <system value="http://fhir.de/CodeSystem/ifa/pzn"/>
                                            <code value="08585997"/>
                                        </coding>
                                        <text value="Prospan® Hustensaft 100ml N1"/>
                                    </code>
                                </Medication>
                            </contained>
                            <identifier>
                                <use value="official"/>
                                <system value="https://gematik.de/fhir/erp/NamingSystem/GEM_ERP_NS_PrescriptionId"/>
                                <value value="160.100.000.000.002.36"/>
                            </identifier>
                            <status value="completed"/>
                            <medicationReference>
                                <reference value="urn:uuid:#de7f0e53-3959-4b2e-9f8b-30bc4a599ca7"/>
                            </medicationReference>
                            <subject>
                                <reference value="urn:uuid:X123456789"/>
                            </subject>
                            <performer>
                                <actor>
                                    <identifier>
                                        <system value="https://gematik.de/fhir/sid/telematik-id"/>
                                        <value value="12345678901234567890"/>
                                    </identifier>
                                </actor>
                            </performer>
                            <whenHandedOver value="2020-04-16T13:44:27.957000+00:00"/>
                            <dosageInstruction>
                                <sequence value="1"/>
                                <text value="Eine Tablette täglich"/>
                                <timing>
                                    <repeat>
                                        <frequency value="1"/>
                                        <period value="1.0"/>
                                        <periodUnit value="d"/>
                                    </repeat>
                                </timing>
                                <doseAndRate>
                                    <type>
                                        <coding>
                                            <code value="ordered"/>
                                        </coding>
                                    </type>
                                    <doseQuantity>
                                        <value value="1.0"/>
                                        <unit value="tablet"/>
                                    </doseQuantity>
                                </doseAndRate>
                            </dosageInstruction>
                        </MedicationDispense>
                    </resource>
                </entry>
            </Bundle>
        </resource>
    </entry>
    <entry>
        <fullUrl value="urn:uuid:92a19c11-7b82-4735-be2b-e78aa685504c"/>
        <resource>
            <Patient>
                <id value="92a19c11-7b82-4735-be2b-e78aa685504c"/>
                <meta>
                    <profile value="https://gematik.de/fhir/erp-servicerequest/StructureDefinition/erp-service-request-patient"/>
                </meta>
                <identifier>
                    <system value="http://fhir.de/sid/gkv/kvid-10"/>
                    <value value="X234567890"/>
                </identifier>
                <name>
                    <use value="official"/>
                    <family value="Königsstein">
                        <extension url="http://hl7.org/fhir/StructureDefinition/humanname-own-name">
                            <valueString value="Königsstein"/>
                        </extension>
                    </family>
                    <given value="Ludger"/>
                </name>
                <birthDate value="1935-06-22"/>
                <address>
                    <type value="both"/>
                    <line value="Musterstr. 1">
                        <extension url="http://hl7.org/fhir/StructureDefinition/iso21090-ADXP-houseNumber">
                            <valueString value="1"/>
                        </extension>
                        <extension url="http://hl7.org/fhir/StructureDefinition/iso21090-ADXP-streetName">
                            <valueString value="Musterstr."/>
                        </extension>
                    </line>
                    <city value="Berlin"/>
                    <postalCode value="10623"/>
                </address>
            </Patient>
        </resource>
    </entry>
    <entry>
        <fullUrl value="urn:uuid:1619cd88-6b51-4a60-a432-31a078a4fbf7"/>
        <resource>
            <Organization>
                <id value="1619cd88-6b51-4a60-a432-31a078a4fbf7"/>
                <meta>
                    <profile value="https://gematik.de/fhir/erp-servicerequest/StructureDefinition/erp-service-request-organization"/>
                    <tag>
                        <system value="https://gematik.de/fhir/directory/CodeSystem/Origin"/>
                        <code value="owner"/>
                    </tag>
                </meta>
                <identifier>
                    <system value="https://gematik.de/fhir/sid/telematik-id"/>
                    <value value="1-431234567"/>
                </identifier>
                <name value="Adler Apotheke"/>
                <address>
                    <type value="both"/>
                    <line value="Malerstraße. 1"/>
                    <city value="Berlin"/>
                    <postalCode value="10523"/>
                </address>
                <contact>
                    <telecom>
                        <system value="phone"/>
                        <value value="0305234567"/>
                    </telecom>
                    <telecom>
                        <system value="email"/>
                        <value value="apotheke@kim.telematik.de"/>
                    </telecom>
                </contact>
            </Organization>
        </resource>
    </entry>
</Bundle>