{
    "id": "901a5b86-11f5-4655-9ec4-3c38a2a50e37",
    "meta": {
        "profile": [
            "https://gematik.de/fhir/atf/StructureDefinition/bundle-app-transport-framework"
        ]
    },
    "entry": [
        {
            "fullUrl": "urn:uuid:b7f1d36a-5b54-44e7-bf3f-bbfea6c7764f",
            "resource": {
                "id": "b7f1d36a-5b54-44e7-bf3f-bbfea6c7764f",
                "meta": {
                    "profile": [
                        "https://gematik.de/fhir/atf/StructureDefinition/message-header-app-transport"
                    ]
                },
                "destination": [
                    {
                        "endpoint": "https://ps_solutions.com/jira_helpdesk",
                        "receiver": {
                            "display": "Pflegeeinrichtung Immergrün",
                            "identifier": {
                                "system": "http://gematik.de/fhir/sid/KIM-Adresse",
                                "value": "pflegeheim.immergrün.arzt@sana-pflegeheime.kim.telematik"
                            }
                        }
                    }
                ],
                "eventCoding": {
                    "code": "eRezept_Rezeptanforderung;Abgabebestaetigung",
                    "display": "Bestätigung der Erfüllung und Abgabe eines Medikamentes",
                    "system": "https://gematik.de/fhir/atf/CodeSystem/service-identifier-cs"
                },
                "focus": [
                    {
                        "reference": "urn:uuid:06724286-44d9-4fb9-88e0-d81ba459be9f"
                    }
                ],
                "sender": {
                    "display": "Test Apotheke",
                    "identifier": {
                        "system": "http://gematik.de/fhir/sid/KIM-Adresse",
                        "value": "arbeitsplatz-1@test-apotheke.kim.telematik"
                    }
                },
                "source": {
                    "contact": {
                        "system": "email",
                        "value": "issues@apo-flott.de"
                    },
                    "endpoint": "https://aposoft.de/issues",
                    "name": "ApoSoft Gmbh",
                    "software": "ApoFlott",
                    "version": "1.1.3"
                },
                "resourceType": "MessageHeader"
            }
        },
        {
            "fullUrl": "urn:uuid:06724286-44d9-4fb9-88e0-d81ba459be9f",
            "resource": {
                "id": "06724286-44d9-4fb9-88e0-d81ba459be9f",
                "meta": {
                    "profile": [
                        "https://gematik.de/fhir/erp-servicerequest/StructureDefinition/erp-service-request-dispense-request"
                    ]
                },
                "extension": [],
                "authoredOn": "2023-06-30T00:16:00.692269",
                "basedOn": [
                    {
                        "reference": "a7e6e85c-aac8-4ed5-8d41-c5b3918a6a8b"
                    }
                ],
                "code": {
                    "coding": [
                        {
                            "code": "dispense-request",
                            "system": "https://gematik.de/fhir/erp-servicerequest/CodeSystem/service-request-type-cs"
                        }
                    ]
                },
                "identifier": [
                    {
                        "system": "https://gematik.de/fhir/erp-servicerequest/sid/NamingSystemPreDisIdentifier",
                        "value": "71bc9cd2-b48a-4c12-88f2-9a9b41f01b4a"
                    },
                    {
                        "system": "https://gematik.de/fhir/erp-servicerequest/sid/NamingSystemProcedureIdentifier",
                        "value": "83132153-07f4-4ce5-be81-3c3a093d48c0"
                    }
                ],
                "intent": "filler-order",
                "note": [
                    {
                        "text": "Bitte wie üblich zur Abholung bereitlegen."
                    }
                ],
                "occurrenceDateTime": "2023-06-30T00:16:00.692267",
                "performer": [
                    {
                        "identifier": {
                            "system": "http://gematik.de/fhir/sid/KIM-Adresse"
                        }
                    }
                ],
                "requester": {
                    "reference": "e13c74fa-5a9c-488f-8d3c-518413841c8b"
                },
                "requisition": {
                    "system": "https://gematik.de/fhir/erp-servicerequest/sid/NamingSystemProcedureIdentifier",
                    "value": "83132153-07f4-4ce5-be81-3c3a093d48c0"
                },
                "status": "completed",
                "subject": {
                    "reference": "96c423ad-cedb-45f5-8182-080cfd2195d9"
                },
                "resourceType": "ServiceRequest"
            }
        },
        {
            "fullUrl": "urn:uuid:06724286-44d9-4fb9-88e0-d81ba459be9f",
            "resource": {
                "id": "06724286-44d9-4fb9-88e0-d81ba459be9f",
                "meta": {
                    "profile": [
                        "https://gematik.de/fhir/erp-servicerequest/StructureDefinition/erp-service-request-dispense-request"
                    ]
                },
                "extension": [],
                "authoredOn": "2023-06-30T00:16:00.692269",
                "basedOn": [
                    {
                        "reference": "a7e6e85c-aac8-4ed5-8d41-c5b3918a6a8b"
                    }
                ],
                "code": {
                    "coding": [
                        {
                            "code": "dispense-request",
                            "system": "https://gematik.de/fhir/erp-servicerequest/CodeSystem/service-request-type-cs"
                        }
                    ]
                },
                "identifier": [
                    {
                        "system": "https://gematik.de/fhir/erp-servicerequest/sid/NamingSystemPreDisIdentifier",
                        "value": "71bc9cd2-b48a-4c12-88f2-9a9b41f01b4a"
                    },
                    {
                        "system": "https://gematik.de/fhir/erp-servicerequest/sid/NamingSystemProcedureIdentifier",
                        "value": "83132153-07f4-4ce5-be81-3c3a093d48c0"
                    }
                ],
                "intent": "filler-order",
                "note": [
                    {
                        "text": "Bitte wie üblich zur Abholung bereitlegen."
                    }
                ],
                "occurrenceDateTime": "2023-06-30T00:16:00.692267",
                "performer": [
                    {
                        "identifier": {
                            "system": "http://gematik.de/fhir/sid/KIM-Adresse"
                        }
                    }
                ],
                "requester": {
                    "reference": "e13c74fa-5a9c-488f-8d3c-518413841c8b"
                },
                "requisition": {
                    "system": "https://gematik.de/fhir/erp-servicerequest/sid/NamingSystemProcedureIdentifier",
                    "value": "83132153-07f4-4ce5-be81-3c3a093d48c0"
                },
                "status": "completed",
                "subject": {
                    "reference": "96c423ad-cedb-45f5-8182-080cfd2195d9"
                },
                "resourceType": "ServiceRequest"
            }
        },
        {
            "fullUrl": "urn:uuid:None",
            "resource": {
                "entry": [
                    {
                        "fullUrl": "http://erp-servicerequest-test.de/MedicationDispense/2729c2b3-ebec-43c5-aac5-ab06ad183aea",
                        "resource": {
                            "id": "2729c2b3-ebec-43c5-aac5-ab06ad183aea",
                            "meta": {
                                "profile": [
                                    "https://gematik.de/fhir/erp/StructureDefinition/GEM_ERP_PR_MedicationDispense|1.2"
                                ]
                            },
                            "contained": [
                                {
                                    "id": "aece1784-cb55-4bf3-b45a-a6dcaf6adc08",
                                    "meta": {
                                        "profile": [
                                            "https://fhir.kbv.de/StructureDefinition/KBV_PR_ERP_Medication_PZN|1.1.0"
                                        ]
                                    },
                                    "code": {
                                        "coding": [
                                            {
                                                "code": "08585997",
                                                "system": "http://fhir.de/CodeSystem/ifa/pzn"
                                            }
                                        ],
                                        "text": "Prospan® Hustensaft 100ml N1"
                                    },
                                    "resourceType": "Medication"
                                }
                            ],
                            "dosageInstruction": [
                                {
                                    "doseAndRate": [
                                        {
                                            "doseQuantity": {
                                                "unit": "tablet",
                                                "value": 1
                                            },
                                            "type": {
                                                "coding": [
                                                    {
                                                        "code": "ordered"
                                                    }
                                                ]
                                            }
                                        }
                                    ],
                                    "sequence": 1,
                                    "text": "Eine Tablette täglich",
                                    "timing": {
                                        "repeat": {
                                            "frequency": 1,
                                            "period": 1,
                                            "periodUnit": "d"
                                        }
                                    }
                                }
                            ],
                            "identifier": [
                                {
                                    "system": "https://gematik.de/fhir/erp/NamingSystem/GEM_ERP_NS_PrescriptionId",
                                    "use": "official",
                                    "value": "160.100.000.000.002.36"
                                }
                            ],
                            "medicationReference": {
                                "reference": "#aece1784-cb55-4bf3-b45a-a6dcaf6adc08"
                            },
                            "performer": [
                                {
                                    "actor": {
                                        "identifier": {
                                            "system": "https://gematik.de/fhir/sid/telematik-id",
                                            "value": "12345678901234567890"
                                        }
                                    }
                                }
                            ],
                            "status": "completed",
                            "subject": {
                                "reference": "X123456789"
                            },
                            "whenHandedOver": "2020-04-16T13:44:27.957000+00:00",
                            "resourceType": "MedicationDispense"
                        }
                    }
                ],
                "type": "transaction",
                "resourceType": "Bundle"
            }
        }
    ],
    "identifier": {
        "system": "urn:ietf:rfc:3986",
        "value": "urn:uuid:901a5b86-11f5-4655-9ec4-3c38a2a50e37"
    },
    "timestamp": "2023-06-29T22:16:00.697795+00:00",
    "type": "message",
    "resourceType": "Bundle"
}