{
    "id": "015fe608-9810-465a-a551-29d0ee7f8823",
    "meta": {
        "profile": [
            "https://gematik.de/fhir/atf/StructureDefinition/bundle-app-transport-framework"
        ]
    },
    "entry": [
        {
            "fullUrl": "urn:uuid:45039d29-7d81-402f-90cc-fdc94fcb939e",
            "resource": {
                "id": "45039d29-7d81-402f-90cc-fdc94fcb939e",
                "meta": {
                    "profile": [
                        "https://gematik.de/fhir/atf/StructureDefinition/message-header-app-transport"
                    ]
                },
                "destination": [
                    {
                        "endpoint": "https://ps_solutions.com/jira_helpdesk",
                        "receiver": {
                            "display": "Pflegeeinrichtung Immergrün",
                            "identifier": {
                                "system": "http://gematik.de/fhir/sid/KIM-Adresse",
                                "value": "pflegeheim.immergrün.arzt@sana-pflegeheime.kim.telematik"
                            }
                        }
                    }
                ],
                "eventCoding": {
                    "code": "eRezept_Rezeptanforderung;Rezeptbestaetigung",
                    "display": "Bestätigung und Übermittlung eines ausgestellten Rezeptes",
                    "system": "https://gematik.de/fhir/atf/CodeSystem/service-identifier-cs"
                },
                "focus": [
                    {
                        "reference": "urn:uuid:83132153-07f4-4ce5-be81-3c3a093d48c0"
                    }
                ],
                "sender": {
                    "display": "Arztpraxis",
                    "identifier": {
                        "system": "http://gematik.de/fhir/sid/KIM-Adresse",
                        "value": "praxis.hasenbein@gluecklich.kim.telematik"
                    }
                },
                "source": {
                    "contact": {
                        "system": "email",
                        "value": "issues@praxisfix-deltacare.de"
                    },
                    "endpoint": "https://deltacare.de/praxisfix/issues",
                    "name": "DeltaCare Inc.",
                    "software": "PraxisFix",
                    "version": "1.3.2"
                },
                "resourceType": "MessageHeader"
            }
        },
        {
            "fullUrl": "urn:uuid:83132153-07f4-4ce5-be81-3c3a093d48c0",
            "resource": {
                "id": "83132153-07f4-4ce5-be81-3c3a093d48c0",
                "meta": {
                    "profile": [
                        "https://gematik.de/fhir/erp-servicerequest/StructureDefinition/erp-service-request-prescription-request"
                    ]
                },
                "extension": [
                    {
                        "url": "https://gematik.de/fhir/erp-servicerequest/StructureDefinition/eprescription-token-ex",
                        "valueIdentifier": {
                            "system": "https://gematik.de/fhir/erp/sid/NamingSystemEPrescriptionToken",
                            "value": "Task/160.501.395.803.441/$accept?ac=Ed70Bfcc9E6DbD61F5ADDa0569C02665134F9Dec7f854C5FA10F4eF5beBa5b13"
                        }
                    }
                ],
                "authoredOn": "2023-06-30T00:16:00.669575",
                "basedOn": [
                    {
                        "reference": "a7e6e85c-aac8-4ed5-8d41-c5b3918a6a8b"
                    }
                ],
                "code": {
                    "coding": [
                        {
                            "code": "prescription-request",
                            "system": "https://gematik.de/fhir/erp-servicerequest/CodeSystem/service-request-type-cs"
                        }
                    ]
                },
                "identifier": [
                    {
                        "system": "https://gematik.de/fhir/erp-servicerequest/sid/NamingSystemRequestIdentifier",
                        "value": "dfd9ebde-9b20-40e4-83c7-68727d75d850"
                    },
                    {
                        "system": "https://gematik.de/fhir/erp-servicerequest/sid/NamingSystemPreDisIdentifier",
                        "value": "71bc9cd2-b48a-4c12-88f2-9a9b41f01b4a"
                    },
                    {
                        "system": "https://gematik.de/fhir/erp-servicerequest/sid/NamingSystemProcedureIdentifier",
                        "value": "de0e2174-c754-41ec-a7a1-cafbfe82ff0e"
                    }
                ],
                "intent": "order",
                "note": [
                    {
                        "text": "Medikament läuft am 31.01.2023 aus. Es sind noch 7 stk übrig."
                    }
                ],
                "occurrenceDateTime": "2023-06-30T00:16:00.669573",
                "orderDetail": [
                    {
                        "coding": [
                            {
                                "code": "return-to-requester",
                                "system": "https://gematik.de/fhir/erp-servicerequest/CodeSystem/prescription-fullfillment-type-cs"
                            }
                        ]
                    }
                ],
                "performer": [
                    {
                        "identifier": {
                            "system": "http://gematik.de/fhir/sid/KIM-Adresse",
                            "value": "practitioner@gluecklich.kim.telematik"
                        }
                    }
                ],
                "reasonCode": [
                    {
                        "coding": [
                            {
                                "code": "medication-runs-out",
                                "system": "https://gematik.de/fhir/erp-servicerequest/CodeSystem/medication-request-reason-cs"
                            }
                        ]
                    }
                ],
                "reasonReference": [
                    {
                        "reference": "Medication-Runs-Out-Example-dateTime"
                    },
                    {
                        "reference": "Medication-Runs-Out-Example-Quantity"
                    }
                ],
                "requester": {
                    "reference": "e13c74fa-5a9c-488f-8d3c-518413841c8b"
                },
                "requisition": {
                    "system": "https://gematik.de/fhir/erp-servicerequest/sid/NamingSystemProcedureIdentifier",
                    "value": "de0e2174-c754-41ec-a7a1-cafbfe82ff0e"
                },
                "status": "completed",
                "subject": {
                    "reference": "96c423ad-cedb-45f5-8182-080cfd2195d9"
                },
                "resourceType": "ServiceRequest"
            }
        },
        {
            "fullUrl": "urn:uuid:a7e6e85c-aac8-4ed5-8d41-c5b3918a6a8b",
            "resource": {
                "id": "a7e6e85c-aac8-4ed5-8d41-c5b3918a6a8b",
                "meta": {
                    "profile": [
                        "https://fhir.kbv.de/StructureDefinition/KBV_PR_ERP_Prescription|1.1.0"
                    ]
                },
                "extension": [
                    {
                        "url": "https://fhir.kbv.de/StructureDefinition/KBV_EX_ERP_EmergencyServicesFee",
                        "valueBoolean": false
                    },
                    {
                        "url": "https://fhir.kbv.de/StructureDefinition/KBV_EX_ERP_BVG",
                        "valueBoolean": false
                    },
                    {
                        "extension": [
                            {
                                "url": "Kennzeichen",
                                "valueBoolean": false
                            }
                        ],
                        "url": "https://fhir.kbv.de/StructureDefinition/KBV_EX_ERP_Multiple_Prescription"
                    },
                    {
                        "url": "https://fhir.kbv.de/StructureDefinition/KBV_EX_FOR_StatusCoPayment",
                        "valueCoding": {
                            "code": "1",
                            "system": "https://fhir.kbv.de/CodeSystem/KBV_CS_FOR_StatusCoPayment"
                        }
                    }
                ],
                "authoredOn": "2023-06-30",
                "dosageInstruction": [
                    {
                        "extension": [
                            {
                                "url": "https://fhir.kbv.de/StructureDefinition/KBV_EX_ERP_DosageFlag",
                                "valueBoolean": true
                            }
                        ],
                        "text": "2mal tägl. 5ml"
                    }
                ],
                "insurance": [
                    {
                        "reference": "3d0af364-4c32-4fa7-ba2d-7e26a3f3e4c5"
                    }
                ],
                "intent": "order",
                "medicationReference": {
                    "reference": "Example-Initial-Medication"
                },
                "requester": {
                    "reference": "8429a6e8-3dd7-4985-bafe-e94e07b297e8"
                },
                "status": "active",
                "subject": {
                    "reference": "9c702f89-2aa9-4a31-9b0d-3350c5875518"
                },
                "substitution": {
                    "allowedBoolean": true
                },
                "resourceType": "MedicationRequest"
            }
        },
        {
            "fullUrl": "urn:uuid:Example-Initial-Medication",
            "resource": {
                "id": "Example-Initial-Medication",
                "meta": {
                    "profile": [
                        "https://fhir.kbv.de/StructureDefinition/KBV_PR_ERP_Medication_PZN|1.1.0"
                    ]
                },
                "extension": [
                    {
                        "url": "https://fhir.kbv.de/StructureDefinition/KBV_EX_Base_Medication_Type",
                        "valueCodeableConcept": {
                            "coding": [
                                {
                                    "code": "763158003",
                                    "display": "Medicinal product (product)",
                                    "system": "http://snomed.info/sct",
                                    "version": "http://snomed.info/sct/900000000000207008/version/20220331"
                                }
                            ]
                        }
                    },
                    {
                        "url": "https://fhir.kbv.de/StructureDefinition/KBV_EX_ERP_Medication_Category",
                        "valueCoding": {
                            "code": "00",
                            "system": "https://fhir.kbv.de/CodeSystem/KBV_CS_ERP_Medication_Category"
                        }
                    },
                    {
                        "url": "https://fhir.kbv.de/StructureDefinition/KBV_EX_ERP_Medication_Vaccine",
                        "valueBoolean": false
                    },
                    {
                        "url": "http://fhir.de/StructureDefinition/normgroesse",
                        "valueCode": "N1"
                    }
                ],
                "code": {
                    "coding": [
                        {
                            "code": "08585997",
                            "system": "http://fhir.de/CodeSystem/ifa/pzn"
                        }
                    ],
                    "text": "Prospan® Hustensaft 100ml"
                },
                "form": {
                    "coding": [
                        {
                            "code": "FLE",
                            "system": "https://fhir.kbv.de/CodeSystem/KBV_CS_SFHIR_KBV_DARREICHUNGSFORM"
                        }
                    ]
                },
                "resourceType": "Medication"
            }
        },
        {
            "fullUrl": "urn:uuid:8429a6e8-3dd7-4985-bafe-e94e07b297e8",
            "resource": {
                "id": "8429a6e8-3dd7-4985-bafe-e94e07b297e8",
                "meta": {
                    "profile": [
                        "https://fhir.kbv.de/StructureDefinition/KBV_PR_FOR_Practitioner|1.1.0"
                    ]
                },
                "identifier": [
                    {
                        "system": "https://fhir.kbv.de/NamingSystem/KBV_NS_Base_ANR",
                        "type": {
                            "coding": [
                                {
                                    "code": "LANR",
                                    "system": "http://terminology.hl7.org/CodeSystem/v2-0203"
                                }
                            ]
                        },
                        "value": "838382202"
                    },
                    {
                        "system": "https://gematik.de/fhir/sid/telematik-id",
                        "type": {
                            "coding": [
                                {
                                    "code": "PRN",
                                    "system": "http://terminology.hl7.org/CodeSystem/v2-0203"
                                }
                            ]
                        },
                        "value": "1-838382202"
                    }
                ],
                "name": [
                    {
                        "family": "Topp-Glücklich",
                        "_family": {
                            "extension": [
                                {
                                    "url": "http://hl7.org/fhir/StructureDefinition/humanname-own-name",
                                    "valueString": "Topp-Glücklich"
                                }
                            ]
                        },
                        "given": [
                            "Hans"
                        ],
                        "prefix": [
                            "Dr. med."
                        ],
                        "use": "official"
                    }
                ],
                "qualification": [
                    {
                        "code": {
                            "coding": [
                                {
                                    "code": "00",
                                    "system": "https://fhir.kbv.de/CodeSystem/KBV_CS_FOR_Qualification_Type"
                                }
                            ],
                            "text": "Arzt"
                        }
                    },
                    {
                        "code": {
                            "coding": [
                                {
                                    "code": "Berufsbezeichnung",
                                    "system": "https://fhir.kbv.de/CodeSystem/KBV_CS_FOR_Berufsbezeichnung"
                                }
                            ],
                            "text": "Hausarzt"
                        }
                    }
                ],
                "resourceType": "Practitioner"
            }
        },
        {
            "fullUrl": "urn:uuid:9c702f89-2aa9-4a31-9b0d-3350c5875518",
            "resource": {
                "id": "9c702f89-2aa9-4a31-9b0d-3350c5875518",
                "meta": {
                    "profile": [
                        "https://fhir.kbv.de/StructureDefinition/KBV_PR_FOR_Patient|1.1.0"
                    ]
                },
                "address": [
                    {
                        "city": "Berlin",
                        "line": [
                            "Musterstr. 1"
                        ],
                        "_line": [
                            {
                                "extension": [
                                    {
                                        "url": "http://hl7.org/fhir/StructureDefinition/iso21090-ADXP-houseNumber",
                                        "valueString": "1"
                                    }
                                ]
                            },
                            {
                                "extension": [
                                    {
                                        "url": "http://hl7.org/fhir/StructureDefinition/iso21090-ADXP-streetName",
                                        "valueString": "Musterstr."
                                    }
                                ]
                            }
                        ],
                        "postalCode": "10623",
                        "type": "both"
                    }
                ],
                "birthDate": "1935-06-22",
                "identifier": [
                    {
                        "system": "http://fhir.de/sid/gkv/kvid-10",
                        "type": {
                            "coding": [
                                {
                                    "code": "GKV",
                                    "system": "http://fhir.de/CodeSystem/identifier-type-de-basis"
                                }
                            ]
                        },
                        "value": "X234567890"
                    }
                ],
                "name": [
                    {
                        "family": "Königsstein",
                        "_family": {
                            "extension": [
                                {
                                    "url": "http://hl7.org/fhir/StructureDefinition/humanname-own-name",
                                    "valueString": "Königsstein"
                                }
                            ]
                        },
                        "given": [
                            "Ludger"
                        ],
                        "use": "official"
                    }
                ],
                "resourceType": "Patient"
            }
        },
        {
            "fullUrl": "urn:uuid:3d0af364-4c32-4fa7-ba2d-7e26a3f3e4c5",
            "resource": {
                "id": "3d0af364-4c32-4fa7-ba2d-7e26a3f3e4c5",
                "meta": {
                    "profile": [
                        "https://fhir.kbv.de/StructureDefinition/KBV_PR_FOR_Coverage|1.1.0"
                    ]
                },
                "extension": [
                    {
                        "url": "http://fhir.de/StructureDefinition/gkv/besondere-personengruppe",
                        "valueCoding": {
                            "code": "00",
                            "system": "https://fhir.kbv.de/CodeSystem/KBV_CS_SFHIR_KBV_PERSONENGRUPPE"
                        }
                    },
                    {
                        "url": "http://fhir.de/StructureDefinition/gkv/dmp-kennzeichen",
                        "valueCoding": {
                            "code": "00",
                            "system": "https://fhir.kbv.de/CodeSystem/KBV_CS_SFHIR_KBV_DMP"
                        }
                    },
                    {
                        "url": "http://fhir.de/StructureDefinition/gkv/wop",
                        "valueCoding": {
                            "code": "72",
                            "system": "https://fhir.kbv.de/CodeSystem/KBV_CS_SFHIR_ITA_WOP"
                        }
                    },
                    {
                        "url": "http://fhir.de/StructureDefinition/gkv/versichertenart",
                        "valueCoding": {
                            "code": "3",
                            "system": "https://fhir.kbv.de/CodeSystem/KBV_CS_SFHIR_KBV_VERSICHERTENSTATUS"
                        }
                    }
                ],
                "beneficiary": {
                    "reference": "Patient/Example-Patient"
                },
                "payor": [
                    {
                        "display": "AOK Bayern Die Gesundh.",
                        "identifier": {
                            "system": "http://fhir.de/sid/arge-ik/iknr",
                            "value": "108416214"
                        }
                    }
                ],
                "period": {
                    "end": "2040-04-01"
                },
                "status": "active",
                "type": {
                    "coding": [
                        {
                            "code": "GKV",
                            "system": "http://fhir.de/CodeSystem/versicherungsart-de-basis"
                        }
                    ]
                },
                "resourceType": "Coverage"
            }
        },
        {
            "fullUrl": "urn:uuid:66611f77286f4d0bb43b932954b6556e",
            "resource": {
                "id": "66611f77286f4d0bb43b932954b6556e",
                "meta": {
                    "profile": [
                        "https://gematik.de/fhir/erp-servicerequest/StructureDefinition/erp-service-request-organization"
                    ]
                },
                "address": [
                    {
                        "city": "Berlin",
                        "line": [
                            "Musterstr. 2"
                        ],
                        "_line": [
                            {
                                "extension": [
                                    {
                                        "url": "http://hl7.org/fhir/StructureDefinition/iso21090-ADXP-houseNumber",
                                        "valueString": "2"
                                    },
                                    {
                                        "url": "http://hl7.org/fhir/StructureDefinition/iso21090-ADXP-streetName",
                                        "valueString": "Musterstr."
                                    }
                                ]
                            }
                        ],
                        "postalCode": "10623",
                        "type": "both"
                    }
                ],
                "identifier": [
                    {
                        "system": "http://gematik.de/fhir/sid/KIM-Adresse",
                        "type": {
                            "coding": [
                                {
                                    "code": "kim-2.0",
                                    "system": "https://gematik.de/fhir/directory/CodeSystem/EndpointDirectoryConnectionType"
                                }
                            ]
                        },
                        "value": "pflegeheim.immergrün.arzt@sana-pflegeheime.kim.telematik"
                    },
                    {
                        "system": "https://gematik.de/fhir/sid/telematik-id",
                        "type": {
                            "coding": [
                                {
                                    "code": "PRN",
                                    "system": "http://terminology.hl7.org/CodeSystem/v2-0203"
                                }
                            ]
                        },
                        "value": "1-031234567"
                    },
                    {
                        "system": "https://fhir.kbv.de/NamingSystem/KBV_NS_Base_BSNR",
                        "type": {
                            "coding": [
                                {
                                    "code": "BSNR",
                                    "system": "http://terminology.hl7.org/CodeSystem/v2-0203"
                                }
                            ]
                        },
                        "value": "031234567"
                    }
                ],
                "name": "Pflegeheim Immergrün",
                "telecom": [
                    {
                        "system": "phone",
                        "value": "0301234567"
                    }
                ],
                "resourceType": "Organization"
            }
        },
        {
            "fullUrl": "urn:uuid:83132153-07f4-4ce5-be81-3c3a093d48c0",
            "resource": {
                "id": "83132153-07f4-4ce5-be81-3c3a093d48c0",
                "meta": {
                    "profile": [
                        "https://gematik.de/fhir/erp-servicerequest/StructureDefinition/erp-service-request-prescription-request"
                    ]
                },
                "extension": [
                    {
                        "url": "https://gematik.de/fhir/erp-servicerequest/StructureDefinition/eprescription-token-ex",
                        "valueIdentifier": {
                            "system": "https://gematik.de/fhir/erp/sid/NamingSystemEPrescriptionToken",
                            "value": "Task/160.501.395.803.441/$accept?ac=Ed70Bfcc9E6DbD61F5ADDa0569C02665134F9Dec7f854C5FA10F4eF5beBa5b13"
                        }
                    }
                ],
                "authoredOn": "2023-06-30T00:16:00.669575",
                "basedOn": [
                    {
                        "reference": "a7e6e85c-aac8-4ed5-8d41-c5b3918a6a8b"
                    }
                ],
                "code": {
                    "coding": [
                        {
                            "code": "prescription-request",
                            "system": "https://gematik.de/fhir/erp-servicerequest/CodeSystem/service-request-type-cs"
                        }
                    ]
                },
                "identifier": [
                    {
                        "system": "https://gematik.de/fhir/erp-servicerequest/sid/NamingSystemRequestIdentifier",
                        "value": "dfd9ebde-9b20-40e4-83c7-68727d75d850"
                    },
                    {
                        "system": "https://gematik.de/fhir/erp-servicerequest/sid/NamingSystemPreDisIdentifier",
                        "value": "71bc9cd2-b48a-4c12-88f2-9a9b41f01b4a"
                    },
                    {
                        "system": "https://gematik.de/fhir/erp-servicerequest/sid/NamingSystemProcedureIdentifier",
                        "value": "de0e2174-c754-41ec-a7a1-cafbfe82ff0e"
                    }
                ],
                "intent": "order",
                "note": [
                    {
                        "text": "Medikament läuft am 31.01.2023 aus. Es sind noch 7 stk übrig."
                    }
                ],
                "occurrenceDateTime": "2023-06-30T00:16:00.669573",
                "orderDetail": [
                    {
                        "coding": [
                            {
                                "code": "return-to-requester",
                                "system": "https://gematik.de/fhir/erp-servicerequest/CodeSystem/prescription-fullfillment-type-cs"
                            }
                        ]
                    }
                ],
                "performer": [
                    {
                        "identifier": {
                            "system": "http://gematik.de/fhir/sid/KIM-Adresse",
                            "value": "practitioner@gluecklich.kim.telematik"
                        }
                    }
                ],
                "reasonCode": [
                    {
                        "coding": [
                            {
                                "code": "medication-runs-out",
                                "system": "https://gematik.de/fhir/erp-servicerequest/CodeSystem/medication-request-reason-cs"
                            }
                        ]
                    }
                ],
                "reasonReference": [
                    {
                        "reference": "Medication-Runs-Out-Example-dateTime"
                    },
                    {
                        "reference": "Medication-Runs-Out-Example-Quantity"
                    }
                ],
                "requester": {
                    "reference": "e13c74fa-5a9c-488f-8d3c-518413841c8b"
                },
                "requisition": {
                    "system": "https://gematik.de/fhir/erp-servicerequest/sid/NamingSystemProcedureIdentifier",
                    "value": "de0e2174-c754-41ec-a7a1-cafbfe82ff0e"
                },
                "status": "completed",
                "subject": {
                    "reference": "96c423ad-cedb-45f5-8182-080cfd2195d9"
                },
                "resourceType": "ServiceRequest"
            }
        }
    ],
    "identifier": {
        "system": "urn:ietf:rfc:3986",
        "value": "urn:uuid:015fe608-9810-465a-a551-29d0ee7f8823"
    },
    "timestamp": "2023-06-29T22:16:00.682140+00:00",
    "type": "message",
    "resourceType": "Bundle"
}