{
    "id": "ff8bdb9c-2e04-4046-9ed6-3d35f7c317ef",
    "meta": {
        "profile": [
            "https://gematik.de/fhir/atf/StructureDefinition/bundle-app-transport-framework"
        ]
    },
    "entry": [
        {
            "fullUrl": "urn:uuid:279ba0f6-87de-4683-b977-376de403ad2a",
            "resource": {
                "id": "279ba0f6-87de-4683-b977-376de403ad2a",
                "meta": {
                    "profile": [
                        "https://gematik.de/fhir/atf/StructureDefinition/message-header-app-transport"
                    ]
                },
                "destination": [
                    {
                        "endpoint": "https://ps_solutions.com/jira_helpdesk",
                        "receiver": {
                            "display": "Pflegeeinrichtung Immergrün",
                            "identifier": {
                                "system": "http://gematik.de/fhir/sid/KIM-Adresse",
                                "value": "pflegeheim.immergrün.arzt@sana-pflegeheime.kim.telematik"
                            }
                        }
                    }
                ],
                "eventCoding": {
                    "code": "eRezept_Rezeptanforderung;Abgabebestaetigung",
                    "display": "Bestätigung der Erfüllung und Abgabe eines Medikamentes",
                    "system": "https://gematik.de/fhir/atf/CodeSystem/service-identifier-cs"
                },
                "focus": [
                    {
                        "reference": "urn:uuid:9f5b2a80-b999-4aac-86d6-2be27c86973a"
                    }
                ],
                "sender": {
                    "display": "Test Apotheke",
                    "identifier": {
                        "system": "http://gematik.de/fhir/sid/KIM-Adresse",
                        "value": "arbeitsplatz-1@test-apotheke.kim.telematik"
                    }
                },
                "source": {
                    "contact": {
                        "system": "email",
                        "value": "issues@apo-flott.de"
                    },
                    "endpoint": "https://aposoft.de/issues",
                    "name": "ApoSoft Gmbh",
                    "software": "ApoFlott",
                    "version": "1.1.3"
                },
                "resourceType": "MessageHeader"
            }
        },
        {
            "fullUrl": "urn:uuid:9f5b2a80-b999-4aac-86d6-2be27c86973a",
            "resource": {
                "id": "9f5b2a80-b999-4aac-86d6-2be27c86973a",
                "meta": {
                    "profile": [
                        "https://gematik.de/fhir/erp-servicerequest/StructureDefinition/erp-service-request-dispense-request"
                    ]
                },
                "extension": [],
                "authoredOn": "2023-06-30T14:09:34.453106+02:00",
                "basedOn": [
                    {
                        "reference": "urn:uuid:urn:uuid:7eb35531-8626-4da5-9108-d4076fe3af3f"
                    }
                ],
                "code": {
                    "coding": [
                        {
                            "code": "dispense-request",
                            "system": "https://gematik.de/fhir/erp-servicerequest/CodeSystem/service-request-type-cs"
                        }
                    ]
                },
                "identifier": [
                    {
                        "system": "https://gematik.de/fhir/erp-servicerequest/sid/NamingSystemPreDisIdentifier",
                        "value": "45b812bf-897d-456d-974b-4a95f096aaa5"
                    },
                    {
                        "system": "https://gematik.de/fhir/erp-servicerequest/sid/NamingSystemProcedureIdentifier",
                        "value": "9e248eb2-75ff-4e62-bd36-51de0da85dab"
                    }
                ],
                "intent": "filler-order",
                "note": [
                    {
                        "text": "Bitte wie üblich zur Abholung bereitlegen."
                    }
                ],
                "occurrenceDateTime": "2023-06-30T14:09:34.453096+02:00",
                "performer": [
                    {
                        "identifier": {
                            "system": "http://gematik.de/fhir/sid/KIM-Adresse"
                        }
                    }
                ],
                "requester": {
                    "reference": "urn:uuid:urn:uuid:3212251d-03ab-4d85-9346-0750b19f4f92"
                },
                "requisition": {
                    "system": "https://gematik.de/fhir/erp-servicerequest/sid/NamingSystemProcedureIdentifier",
                    "value": "9e248eb2-75ff-4e62-bd36-51de0da85dab"
                },
                "status": "completed",
                "subject": {
                    "reference": "urn:uuid:urn:uuid:1506b1c8-4118-402a-9c6a-a159214535cb"
                },
                "resourceType": "ServiceRequest"
            }
        },
        {
            "fullUrl": "urn:uuid:9f5b2a80-b999-4aac-86d6-2be27c86973a",
            "resource": {
                "id": "9f5b2a80-b999-4aac-86d6-2be27c86973a",
                "meta": {
                    "profile": [
                        "https://gematik.de/fhir/erp-servicerequest/StructureDefinition/erp-service-request-dispense-request"
                    ]
                },
                "extension": [],
                "authoredOn": "2023-06-30T14:09:34.453106+02:00",
                "basedOn": [
                    {
                        "reference": "urn:uuid:urn:uuid:7eb35531-8626-4da5-9108-d4076fe3af3f"
                    }
                ],
                "code": {
                    "coding": [
                        {
                            "code": "dispense-request",
                            "system": "https://gematik.de/fhir/erp-servicerequest/CodeSystem/service-request-type-cs"
                        }
                    ]
                },
                "identifier": [
                    {
                        "system": "https://gematik.de/fhir/erp-servicerequest/sid/NamingSystemPreDisIdentifier",
                        "value": "45b812bf-897d-456d-974b-4a95f096aaa5"
                    },
                    {
                        "system": "https://gematik.de/fhir/erp-servicerequest/sid/NamingSystemProcedureIdentifier",
                        "value": "9e248eb2-75ff-4e62-bd36-51de0da85dab"
                    }
                ],
                "intent": "filler-order",
                "note": [
                    {
                        "text": "Bitte wie üblich zur Abholung bereitlegen."
                    }
                ],
                "occurrenceDateTime": "2023-06-30T14:09:34.453096+02:00",
                "performer": [
                    {
                        "identifier": {
                            "system": "http://gematik.de/fhir/sid/KIM-Adresse"
                        }
                    }
                ],
                "requester": {
                    "reference": "urn:uuid:urn:uuid:3212251d-03ab-4d85-9346-0750b19f4f92"
                },
                "requisition": {
                    "system": "https://gematik.de/fhir/erp-servicerequest/sid/NamingSystemProcedureIdentifier",
                    "value": "9e248eb2-75ff-4e62-bd36-51de0da85dab"
                },
                "status": "completed",
                "subject": {
                    "reference": "urn:uuid:urn:uuid:1506b1c8-4118-402a-9c6a-a159214535cb"
                },
                "resourceType": "ServiceRequest"
            }
        },
        {
            "fullUrl": "urn:uuid:None",
            "resource": {
                "entry": [
                    {
                        "fullUrl": "http://erp-servicerequest-test.de/MedicationDispense/34d49c5a-0dc5-49b5-b241-b2781b0ade18",
                        "resource": {
                            "id": "34d49c5a-0dc5-49b5-b241-b2781b0ade18",
                            "meta": {
                                "profile": [
                                    "https://gematik.de/fhir/erp/StructureDefinition/GEM_ERP_PR_MedicationDispense|1.2"
                                ]
                            },
                            "contained": [
                                {
                                    "id": "51178982-ba21-405a-81dc-cb7713f9b716",
                                    "meta": {
                                        "profile": [
                                            "https://fhir.kbv.de/StructureDefinition/KBV_PR_ERP_Medication_PZN|1.1.0"
                                        ]
                                    },
                                    "code": {
                                        "coding": [
                                            {
                                                "code": "08585997",
                                                "system": "http://fhir.de/CodeSystem/ifa/pzn"
                                            }
                                        ],
                                        "text": "Prospan® Hustensaft 100ml N1"
                                    },
                                    "resourceType": "Medication"
                                }
                            ],
                            "dosageInstruction": [
                                {
                                    "doseAndRate": [
                                        {
                                            "doseQuantity": {
                                                "unit": "tablet",
                                                "value": 1
                                            },
                                            "type": {
                                                "coding": [
                                                    {
                                                        "code": "ordered"
                                                    }
                                                ]
                                            }
                                        }
                                    ],
                                    "sequence": 1,
                                    "text": "Eine Tablette täglich",
                                    "timing": {
                                        "repeat": {
                                            "frequency": 1,
                                            "period": 1,
                                            "periodUnit": "d"
                                        }
                                    }
                                }
                            ],
                            "identifier": [
                                {
                                    "system": "https://gematik.de/fhir/erp/NamingSystem/GEM_ERP_NS_PrescriptionId",
                                    "use": "official",
                                    "value": "160.100.000.000.002.36"
                                }
                            ],
                            "medicationReference": {
                                "reference": "urn:uuid:#51178982-ba21-405a-81dc-cb7713f9b716"
                            },
                            "performer": [
                                {
                                    "actor": {
                                        "identifier": {
                                            "system": "https://gematik.de/fhir/sid/telematik-id",
                                            "value": "12345678901234567890"
                                        }
                                    }
                                }
                            ],
                            "status": "completed",
                            "subject": {
                                "reference": "urn:uuid:X123456789"
                            },
                            "whenHandedOver": "2020-04-16T13:44:27.957000+00:00",
                            "resourceType": "MedicationDispense"
                        }
                    }
                ],
                "type": "transaction",
                "resourceType": "Bundle"
            }
        }
    ],
    "identifier": {
        "system": "urn:ietf:rfc:3986",
        "value": "urn:uuid:ff8bdb9c-2e04-4046-9ed6-3d35f7c317ef"
    },
    "timestamp": "2023-06-30T12:09:34.458918+00:00",
    "type": "message",
    "resourceType": "Bundle"
}