<Bundle xmlns="http://hl7.org/fhir">
  <id value="UC1-MULTI-1-Prescription-Request-To-Prescriber" />
  <meta>
    <profile value="https://gematik.de/fhir/erp-servicerequest/StructureDefinition/erp-service-request-message-container" />
  </meta>
  <identifier>
    <system value="urn:ietf:rfc:3986" />
    <value value="urn:uuid:29888885-6639-481c-934e-4b7b51745084" />
  </identifier>
  <type value="message" />
  <timestamp value="2025-05-13T14:25:12+02:00" />
  <entry>
    <fullUrl value="http://erp-servicerequest-test.de/MessageHeader/UC1-MULTI-HealthCareService-to-Practitioner-MessageHeader" />
    <resource>
      <MessageHeader>
        <id value="UC1-MULTI-HealthCareService-to-Practitioner-MessageHeader" />
        <meta>
          <profile value="https://gematik.de/fhir/erp-servicerequest/StructureDefinition/erp-service-request-request-header" />
        </meta>
        <eventCoding>
          <system value="https://gematik.de/fhir/atf/CodeSystem/service-identifier-cs" />
          <code value="eRezept_Rezeptanforderung;Rezeptanfrage" />
        </eventCoding>
        <destination>
          <name value="Praxis Hans Topp-Glücklich" />
          <endpoint value="mailto:practitioner@test.kim.de" />
        </destination>
        <sender>
          <identifier>
            <system value="https://gematik.de/fhir/sid/telematik-id" />
            <value value="5-test-telematik-id" />
          </identifier>
          <display value="Pflegeheim Immergrün" />
        </sender>
        <source>
          <name value="HealthCare-Source" />
          <software value="HealthCare-Software" />
          <version value="1.0.0" />
          <contact>
            <system value="email" />
            <value value="info@healthcare_ps_solutions.com" />
          </contact>
          <endpoint value="https://healthcare_ps_solutions.com/jira_helpdesk" />
        </source>
        <responsible>
          <reference value="Organization/Example-HealthCareService-Organization" />
        </responsible>
        <focus>
          <reference value="ServiceRequest/UC1-MULTI-Initial-Prescription-Request-1" />
        </focus>
        <focus>
          <reference value="ServiceRequest/UC1-MULTI-Initial-Prescription-Request-2" />
        </focus>
      </MessageHeader>
    </resource>
  </entry>
  <entry>
    <fullUrl value="http://erp-servicerequest-test.de/Organization/Example-HealthCareService-Organization" />
    <resource>
      <Organization>
        <id value="Example-HealthCareService-Organization" />
        <meta>
          <profile value="https://gematik.de/fhir/erp-servicerequest/StructureDefinition/erp-service-request-organization" />
        </meta>
        <identifier>
          <system value="https://gematik.de/fhir/sid/telematik-id" />
          <value value="123456789" />
        </identifier>
        <type>
          <coding>
            <system value="https://gematik.de/fhir/directory/CodeSystem/OrganizationProfessionOID" />
            <code value="1.2.276.0.76.4.245" />
            <display value="Betriebsstätte Gesundheits-, Kranken- und Altenpflege" />
          </coding>
        </type>
        <name value="Pflegeheim Immergrün" />
        <address>
          <type value="both" />
          <line value="Musterstr. 2" />
          <city value="Berlin" />
          <postalCode value="10623" />
        </address>
        <contact>
          <telecom>
            <system value="phone" />
            <value value="0301234567" />
          </telecom>
          <telecom>
            <system value="email" />
            <value value="arbeitsplatz-1@test-pflegeheim.kim.telematik" />
          </telecom>
        </contact>
      </Organization>
    </resource>
  </entry>
  <entry>
    <fullUrl value="http://erp-servicerequest-test.de/ServiceRequest/UC1-MULTI-Initial-Prescription-Request-1" />
    <resource>
      <ServiceRequest>
        <id value="UC1-MULTI-Initial-Prescription-Request-1" />
        <meta>
          <profile value="https://gematik.de/fhir/erp-servicerequest/StructureDefinition/erp-service-request-prescription-request" />
        </meta>
        <identifier>
          <system value="https://gematik.de/fhir/erp-servicerequest/sid/RequestIdentifier" />
          <value value="multi-1" />
        </identifier>
        <basedOn>
          <reference value="MedicationRequest/Example-Initial-Medication-Request" />
        </basedOn>
        <requisition>
          <system value="https://gematik.de/fhir/erp-servicerequest/sid/ProcedureIdentifier" />
          <value value="GroupID-UC1-MULTI" />
        </requisition>
        <status value="active" />
        <intent value="order" />
        <code>
          <coding>
            <system value="https://gematik.de/fhir/erp-servicerequest/CodeSystem/service-request-type-cs" />
            <code value="prescription-request" />
          </coding>
        </code>
        <subject>
          <reference value="Patient/Example-Patient" />
        </subject>
        <occurrenceDateTime value="2025-05-15" />
        <authoredOn value="2025-05-13" />
        <requester>
          <reference value="Organization/Example-HealthCareService-Organization" />
        </requester>
        <reasonCode>
          <extension url="https://gematik.de/fhir/erp-servicerequest/StructureDefinition/remaining-supply-ex">
            <valueQuantity>
              <value value="2" />
              <unit value="Tabletten" />
            </valueQuantity>
          </extension>
        </reasonCode>
        <note>
          <time value="2025-05-13T12:23:12+02:00" />
          <text value="Für die Nacht sehr hilfreich." />
        </note>
      </ServiceRequest>
    </resource>
  </entry>
  <entry>
    <fullUrl value="http://erp-servicerequest-test.de/ServiceRequest/UC1-MULTI-Initial-Prescription-Request-2" />
    <resource>
      <ServiceRequest>
        <id value="UC1-MULTI-Initial-Prescription-Request-2" />
        <meta>
          <profile value="https://gematik.de/fhir/erp-servicerequest/StructureDefinition/erp-service-request-prescription-request" />
        </meta>
        <identifier>
          <system value="https://gematik.de/fhir/erp-servicerequest/sid/RequestIdentifier" />
          <value value="multi-2" />
        </identifier>
        <basedOn>
          <reference value="MedicationRequest/Example-Initial-Medication-Request-2" />
        </basedOn>
        <requisition>
          <system value="https://gematik.de/fhir/erp-servicerequest/sid/ProcedureIdentifier" />
          <value value="GroupID-UC1-MULTI" />
        </requisition>
        <status value="active" />
        <intent value="order" />
        <code>
          <coding>
            <system value="https://gematik.de/fhir/erp-servicerequest/CodeSystem/service-request-type-cs" />
            <code value="prescription-request" />
          </coding>
        </code>
        <subject>
          <reference value="Patient/Example-Patient-2" />
        </subject>
        <authoredOn value="2025-05-13" />
        <requester>
          <reference value="Organization/Example-HealthCareService-Organization" />
        </requester>
        <note>
          <time value="2025-05-13T12:23:12+02:00" />
          <text value="Für den Bedarfsfall" />
        </note>
      </ServiceRequest>
    </resource>
  </entry>
  <entry>
    <fullUrl value="http://erp-servicerequest-test.de/Patient/Example-Patient" />
    <resource>
      <Patient>
        <id value="Example-Patient" />
        <meta>
          <profile value="https://gematik.de/fhir/erp-servicerequest/StructureDefinition/erp-service-request-patient" />
        </meta>
        <identifier>
          <system value="http://fhir.de/sid/gkv/kvid-10" />
          <value value="X234567890" />
        </identifier>
        <name>
          <use value="official" />
          <family value="Königsstein">
            <extension url="http://hl7.org/fhir/StructureDefinition/humanname-own-name">
              <valueString value="Königsstein" />
            </extension>
          </family>
          <given value="Ludger" />
        </name>
        <birthDate value="1935-06-22" />
        <address>
          <type value="both" />
          <line value="Musterstr. 1">
            <extension url="http://hl7.org/fhir/StructureDefinition/iso21090-ADXP-houseNumber">
              <valueString value="1" />
            </extension>
            <extension url="http://hl7.org/fhir/StructureDefinition/iso21090-ADXP-streetName">
              <valueString value="Musterstr." />
            </extension>
          </line>
          <city value="Berlin" />
          <postalCode value="10623" />
        </address>
      </Patient>
    </resource>
  </entry>
  <entry>
    <fullUrl value="http://erp-servicerequest-test.de/Patient/Example-Patient-2" />
    <resource>
      <Patient>
        <id value="Example-Patient-2" />
        <meta>
          <profile value="https://gematik.de/fhir/erp-servicerequest/StructureDefinition/erp-service-request-patient" />
        </meta>
        <identifier>
          <system value="http://fhir.de/sid/gkv/kvid-10" />
          <value value="X098765432" />
        </identifier>
        <name>
          <use value="official" />
          <family value="Edgarson">
            <extension url="http://hl7.org/fhir/StructureDefinition/humanname-own-name">
              <valueString value="Edgarson" />
            </extension>
          </family>
          <given value="Peter" />
        </name>
        <birthDate value="1974-01-31" />
        <address>
          <type value="both" />
          <line value="Erikastraße 43">
            <extension url="http://hl7.org/fhir/StructureDefinition/iso21090-ADXP-houseNumber">
              <valueString value="43" />
            </extension>
            <extension url="http://hl7.org/fhir/StructureDefinition/iso21090-ADXP-streetName">
              <valueString value="Erikastraße" />
            </extension>
          </line>
          <city value="Berlin" />
          <postalCode value="10742" />
        </address>
      </Patient>
    </resource>
  </entry>
  <entry>
    <fullUrl value="http://erp-servicerequest-test.de/MedicationRequest/Example-Initial-Medication-Request" />
    <resource>
      <MedicationRequest>
        <id value="Example-Initial-Medication-Request" />
        <meta>
          <profile value="https://gematik.de/fhir/erp-servicerequest/StructureDefinition/erp-service-request-medication-request" />
        </meta>
        <status value="active" />
        <intent value="order" />
        <medicationReference>
          <reference value="Medication/Example-Initial-Medication" />
        </medicationReference>
        <subject>
          <reference value="Patient/Example-Patient" />
        </subject>
        <dispenseRequest>
          <quantity>
            <value value="1" />
            <unit value="Packung" />
          </quantity>
        </dispenseRequest>
      </MedicationRequest>
    </resource>
  </entry>
  <entry>
    <fullUrl value="http://erp-servicerequest-test.de/Medication/Example-Initial-Medication" />
    <resource>
      <Medication>
        <id value="Example-Initial-Medication" />
        <meta>
          <profile value="https://fhir.kbv.de/StructureDefinition/KBV_PR_ERP_Medication_PZN|1.3" />
        </meta>
        <extension url="https://fhir.kbv.de/StructureDefinition/KBV_EX_Base_Medication_Type">
          <valueCodeableConcept>
            <coding>
              <system value="http://snomed.info/sct" />
              <version value="http://snomed.info/sct/11000274103/version/20240515" />
              <code value="763158003" />
              <display value="Medicinal product (product)" />
            </coding>
          </valueCodeableConcept>
        </extension>
        <extension url="https://fhir.kbv.de/StructureDefinition/KBV_EX_ERP_Medication_Category">
          <valueCoding>
            <system value="https://fhir.kbv.de/CodeSystem/KBV_CS_ERP_Medication_Category" />
            <code value="00" />
          </valueCoding>
        </extension>
        <extension url="https://fhir.kbv.de/StructureDefinition/KBV_EX_ERP_Medication_Vaccine">
          <valueBoolean value="false" />
        </extension>
        <extension url="http://fhir.de/StructureDefinition/normgroesse">
          <valueCode value="N1" />
        </extension>
        <code>
          <coding>
            <system value="http://fhir.de/CodeSystem/ifa/pzn" />
            <code value="08585997" />
          </coding>
          <text value="Prospan® Hustensaft 100ml" />
        </code>
        <form>
          <coding>
            <system value="https://fhir.kbv.de/CodeSystem/KBV_CS_SFHIR_KBV_DARREICHUNGSFORM" />
            <code value="FLE" />
          </coding>
        </form>
        <ingredient>
          <itemCodeableConcept>
            <coding>
              <system value="http://fhir.de/CodeSystem/ask" />
              <code value="R05CA12" />
            </coding>
            <text value="Hederae folium (Extr.sicc.(5-7.5:1))" />
          </itemCodeableConcept>
          <strength>
            <numerator>
              <value value="7" />
              <unit value="mg" />
            </numerator>
            <denominator>
              <value value="1" />
              <unit value="ml" />
            </denominator>
          </strength>
        </ingredient>
      </Medication>
    </resource>
  </entry>
  <entry>
    <fullUrl value="http://erp-servicerequest-test.de/MedicationRequest/Example-Initial-Medication-Request-2" />
    <resource>
      <MedicationRequest>
        <id value="Example-Initial-Medication-Request-2" />
        <meta>
          <profile value="https://gematik.de/fhir/erp-servicerequest/StructureDefinition/erp-service-request-medication-request" />
        </meta>
        <status value="active" />
        <intent value="order" />
        <medicationReference>
          <reference value="Medication/Example-Initial-Medication-2" />
        </medicationReference>
        <subject>
          <reference value="Patient/Example-Patient-2" />
        </subject>
        <dispenseRequest>
          <quantity>
            <value value="2" />
            <unit value="Packungen" />
            <system value="http://unitsofmeasure.org" />
            <code value="{Package}" />
          </quantity>
        </dispenseRequest>
      </MedicationRequest>
    </resource>
  </entry>
  <entry>
    <fullUrl value="http://erp-servicerequest-test.de/Medication/Example-Initial-Medication-2" />
    <resource>
      <Medication>
        <id value="Example-Initial-Medication-2" />
        <meta>
          <profile value="https://fhir.kbv.de/StructureDefinition/KBV_PR_ERP_Medication_PZN|1.3" />
        </meta>
        <extension url="https://fhir.kbv.de/StructureDefinition/KBV_EX_Base_Medication_Type">
          <valueCodeableConcept>
            <coding>
              <system value="http://snomed.info/sct" />
              <version value="http://snomed.info/sct/11000274103/version/20240515" />
              <code value="763158003" />
              <display value="Medicinal product (product)" />
            </coding>
          </valueCodeableConcept>
        </extension>
        <extension url="https://fhir.kbv.de/StructureDefinition/KBV_EX_ERP_Medication_Category">
          <valueCoding>
            <system value="https://fhir.kbv.de/CodeSystem/KBV_CS_ERP_Medication_Category" />
            <code value="00" />
          </valueCoding>
        </extension>
        <extension url="https://fhir.kbv.de/StructureDefinition/KBV_EX_ERP_Medication_Vaccine">
          <valueBoolean value="false" />
        </extension>
        <extension url="http://fhir.de/StructureDefinition/normgroesse">
          <valueCode value="N1" />
        </extension>
        <code>
          <coding>
            <system value="http://fhir.de/CodeSystem/ifa/pzn" />
            <code value="02483617" />
          </coding>
          <text value="Buscopan PLUS 20 St" />
        </code>
        <form>
          <coding>
            <system value="https://fhir.kbv.de/CodeSystem/KBV_CS_SFHIR_KBV_DARREICHUNGSFORM" />
            <code value="FTA" />
          </coding>
        </form>
        <ingredient>
          <itemCodeableConcept>
            <coding>
              <system value="http://fhir.de/CodeSystem/ask" />
              <code value="A03BB01" />
            </coding>
            <text value="Butylscopolaminium-bromid" />
          </itemCodeableConcept>
          <strength>
            <numerator>
              <value value="10" />
              <unit value="mg" />
            </numerator>
            <denominator>
              <value value="1" />
              <unit value="Stück" />
            </denominator>
          </strength>
        </ingredient>
        <ingredient>
          <itemCodeableConcept>
            <coding>
              <system value="http://fhir.de/CodeSystem/ask" />
              <code value="N02BE01" />
            </coding>
            <text value="Paracetamol" />
          </itemCodeableConcept>
          <strength>
            <numerator>
              <value value="500" />
              <unit value="mg" />
            </numerator>
            <denominator>
              <value value="1" />
              <unit value="Stück" />
            </denominator>
          </strength>
        </ingredient>
      </Medication>
    </resource>
  </entry>
</Bundle>